time,acc_x,acc_y,acc_z,gyro_x,gyro_y,gyro_z,acc_x_raw,acc_y_raw,acc_z_raw,gyro_x_raw,gyro_y_raw,gyro_z_raw
1564084111.58,-0.0021484375,0.0093994140625,0.0959228515625,-0.12213740458,-0.0740458015267,-0.0847328244275,-35.2,154.0,1571.6,-16.0,-9.7,-11.1
1564084111.69,-0.004326171875,0.0192016601563,0.182302246094,-0.235877862595,-0.164351145038,-0.171679389313,-70.88,314.6,2986.84,-30.9,-21.53,-22.49
1564084111.79,-0.0060419921875,0.0269738769531,0.260507568359,-0.337480916031,-0.199061068702,-0.232374045802,-98.992,441.94,4268.156,-44.21,-26.077,-30.441
1564084111.9,-0.00778154296875,0.0336759033203,0.330135522461,-0.425870229008,-0.231826717557,-0.3099,-127.4928,551.746,5408.9404,-55.789,-30.3693,-40.5969
1564084112.01,-0.00898092773438,0.0397809692383,0.393435446777,-0.522214503817,-0.285743282443,-0.359062671756,-147.14352,651.7714,6446.04636,-68.4101,-37.43237,-47.03721
1564084112.11,-0.0103045146484,0.0453243566895,0.450454206787,-0.579153358779,-0.307550633588,-0.419339610687,-168.829168,742.59426,7380.241724,-75.86909,-40.289133,-54.933489
1564084112.23,-0.0117398834961,0.050093678833,0.501160739233,-0.670092984733,-0.436337554962,-0.482749161069,-192.3462512,820.734834,8211.0175516,-87.782181,-57.1602197,-63.2401401
1564084112.34,-0.012787574834,0.0546302093872,0.547162829373,-0.715297426718,-0.418657997939,-0.553558214427,-209.51162608,895.0613506,8964.71579644,-93.7039629,-54.84419773,-72.51612609
1564084112.45,-0.0138281532881,0.0588839853235,0.588637952685,-0.782698981756,-0.460761663794,-0.589042087641,-226.560463472,964.75521554,9644.2442168,-102.53356661,-60.359777957,-77.164513481
1564084112.56,-0.0147890879593,0.0622973446036,0.626527087104,-0.829619923275,-0.464303818025,-0.627847802541,-242.304417125,1020.67969399,10265.0197951,-108.680209949,-60.8238001613,-82.2480621329
1564084112.67,-0.0156783432258,0.0651496413933,0.660578479956,-0.863451824077,-0.473598627062,-0.659719510837,-256.873975412,1067.41172459,10822.9178156,-113.112188954,-62.0414201452,-86.4232559196
1564084112.78,-0.0160636339033,0.0692792085039,0.690931764773,-0.897717328692,-0.491124260539,-0.686113971967,-263.186577871,1135.07055213,11320.226034,-117.600970059,-64.3372781307,-89.8809303276
1564084112.89,-0.0166789502004,0.0702370298411,0.718127650796,-0.927029565289,-0.510714124562,-0.699945322862,-273.267920084,1150.76349692,11765.8034306,-121.440873053,-66.9035503176,-91.6928372949
1564084113.01,-0.0172571489304,0.0727592252944,0.742628362279,-0.944250272882,-0.524528208289,-0.724607279125,-282.741128076,1192.08714722,12167.2230876,-123.696785748,-68.7131952858,-94.9235535654
1564084113.12,-0.0178995980999,0.075151271515,0.764483690113,-0.981886314296,-0.515586837842,-0.713215253503,-293.267015268,1231.2784325,12525.3007788,-128.627107173,-67.5418757572,-93.4311982089
1564084113.23,-0.0183069039149,0.0770599724885,0.783958172665,-0.989041194317,-0.532730444134,-0.744183804488,-299.940313741,1262.55058925,12844.3707009,-129.564396456,-69.7876881815,-97.488078388
1564084113.34,-0.0190396900859,0.0783871783647,0.801631691336,-1.0145645558,-0.545106254682,-0.765948630146,-311.946282367,1284.29553033,13133.9336308,-132.90795681,-71.4089193634,-100.339270549
1564084113.45,-0.0190156038898,0.0800455308407,0.81744020189,-1.05432947427,-0.55929791929,-0.794697278582,-311.55165413,1311.46597729,13392.9402678,-138.117161129,-73.268027427,-104.105343494
1564084113.56,-0.0194333794383,0.0810985949441,0.831521377013,-1.08172095432,-0.579704005224,-0.803777169045,-318.396488717,1328.71937956,13623.646241,-141.705445016,-75.9412246843,-105.294809145
1564084113.68,-0.019516408682,0.0826811182622,0.844658301812,-1.1445412253,-0.587382459663,-0.826452887255,-319.756839846,1354.64744161,13838.8816169,-149.934900514,-76.9471022159,-108.26532823
1564084113.8,-0.0197132053138,0.0822499204985,0.855602627881,-1.17512527071,-0.616430473239,-0.831593858071,-322.981155861,1347.58269745,14018.1934552,-153.941410463,-80.7523919943,-108.938795407
1564084113.91,-0.0200612207199,0.0834487565736,0.865745490093,-1.17746007188,-0.640283609121,-0.845381037149,-328.683040275,1367.2244277,14184.3741097,-154.247269417,-83.8771527949,-110.744915867
1564084114.03,-0.0200326377104,0.0842591543538,0.875435589521,-1.19482856851,-0.64266746195,-0.86313300977,-328.214736247,1380.50198493,14343.1366987,-156.522542475,-84.1894375154,-113.07042428
1564084114.14,-0.0205440223769,0.0855012076684,0.884107850881,-1.20511670403,-0.648629723388,-0.850102151541,-336.593262623,1400.85178644,14485.2230288,-157.870288228,-84.9704937638,-111.363381852
1564084114.26,-0.0207112998267,0.0864481572141,0.891278120481,-1.22429969011,-0.664682781584,-0.868145371502,-339.33393636,1416.3666078,14602.700726,-160.383259405,-87.0734443875,-113.727043667
1564084114.37,-0.020788607344,0.0884478727427,0.898537027183,-1.23164071347,-0.678367175181,-0.864536941222,-340.600542724,1449.12994702,14721.6306534,-161.344933464,-88.8660999487,-113.2543393
1564084114.48,-0.0206628716096,0.0889536714059,0.904679418214,-1.24817129861,-0.678469388961,-0.870449659313,-338.540488452,1457.41695231,14822.267588,-163.510440118,-88.8794899538,-114.02890537
1564084114.6,-0.0203788110112,0.0895797886403,0.910231984205,-1.250071726,-0.709095732507,-0.847526830787,-333.886439607,1467.67525708,14913.2408292,-163.759396106,-92.8915409585,-111.026014833
1564084114.71,-0.020147570535,0.0898014972763,0.91544902016,-1.25941569844,-0.692384632539,-0.866590941601,-330.097795646,1471.30773137,14998.7167463,-164.983456495,-90.7023868626,-113.52341335
1564084114.82,-0.0205253916065,0.0900254491111,0.919460758769,-1.2548481744,-0.67581792501,-0.874588335991,-336.288016081,1474.97695824,15064.4450717,-164.385110846,-88.5321481764,-114.571072015
1564084114.94,-0.0202306649459,0.090446732325,0.923339878204,-1.23318015085,-0.696022392051,-0.884076067277,-331.459214473,1481.87926241,15128.0005645,-161.546599761,-91.1789333587,-115.813964813
1564084115.05,-0.0201851375138,0.0909723715925,0.927539093509,-1.22589267012,-0.710389618495,-0.900248613221,-330.713293026,1490.49133617,15196.8005081,-160.591939785,-93.0610400228,-117.932568332
1564084115.16,-0.0202418190749,0.0915186891208,0.931245145096,-1.23994462448,-0.723320122294,-0.910987110678,-331.641963723,1499.44220255,15257.5204572,-162.432745807,-94.7549360206,-119.339311499
1564084115.28,-0.0202928324799,0.0917906483337,0.933750513399,-1.23656084905,-0.714346888691,-0.921415117167,-332.477767351,1503.8979823,15298.5684115,-161.989471226,-93.5794424185,-120.705380349
1564084115.39,-0.0206317132944,0.0920109975628,0.936811008934,-1.24878262674,-0.720011436463,-0.917823223771,-338.029990616,1507.50818407,15348.7115704,-163.590524103,-94.3214981767,-120.234842314
1564084115.5,-0.0206925654025,0.093527671244,0.93922365804,-1.24680512743,-0.728926323351,-0.932147771623,-339.026991554,1532.35736566,15388.2404133,-163.331471693,-95.489348359,-122.111358083
1564084115.62,-0.0209182307372,0.0921827166196,0.941810081299,-1.24044522537,-0.746110026894,-0.932062765453,-342.724292399,1510.3216291,15430.616372,-162.498324524,-97.7404135231,-122.100222274
1564084115.73,-0.020999259226,0.0909722574577,0.943869307544,-1.24922513032,-0.744781466953,-0.91519236677,-344.051863159,1490.48946619,15464.3547348,-163.648492071,-97.5663721708,-119.890200047
1564084115.85,-0.0209989426784,0.0912500317119,0.94586909554,-1.24185986919,-0.739005610334,-0.929016641544,-344.046676843,1495.04051957,15497.1192613,-162.683642864,-96.8097349537,-121.701180042
1564084115.96,-0.0213404546606,0.0899863566657,0.947742146923,-1.25813189754,-0.746021079835,-0.916267649145,-349.642009159,1474.33646761,15527.8073352,-164.815278578,-97.7287614583,-120.031062038
1564084116.07,-0.021232776382,0.0903138928741,0.948793127543,-1.25827290626,-0.731724315363,-0.929221036902,-347.877808243,1479.70282085,15545.0266017,-164.83375072,-95.8558853125,-121.727955834
1564084116.19,-0.0217218034313,0.0921955895242,0.950788814789,-1.08588073014,-0.846338143368,-0.935535574433,-355.890027419,1510.53253876,15577.7239415,-142.250375648,-110.870296781,-122.555160251
1564084116.3,-0.0215027480882,0.0914721243218,0.950802706748,-1.85591861132,-0.61819287865,-1.01144766585,-352.301024677,1498.67928489,15577.9515474,-243.125338083,-80.9832671031,-132.499644226
1564084116.41,-0.0219891920294,0.0911628025146,0.95159645951,-1.76880003263,-0.65332015567,-0.947707479413,-360.270922209,1493.6113564,15590.9563926,-231.712804275,-85.5849403928,-124.149679803
1564084116.53,-0.0225978900139,0.0896637097632,0.950919235434,-1.37741621258,-0.66203394163,-1.0911046704,-370.243829988,1469.05022076,15579.8607534,-180.441523847,-86.7264463535,-142.934711823
1564084116.64,-0.0169689603875,0.0971280028493,0.958610515016,-4.58852955315,0.834703803678,-1.46367359268,-278.019446989,1591.34519868,15705.874678,-601.097371463,109.346198282,-191.741240641
1564084116.75,-0.00460311903628,0.115369304127,0.958257276014,-5.63960026196,0.904668537814,-1.70051234028,-75.4175022904,1890.21067882,15700.0872102,-738.787634316,118.511578454,-222.767116576
1564084116.87,-0.00299534619515,0.0956292487142,0.988896392163,-5.63518222049,1.64778947029,0.41915721436,-49.0757520614,1566.78961093,16202.0784892,-738.208870885,215.860420608,54.9095950812
1564084116.98,-0.00401417095064,0.103400308218,0.981828042009,-6.44876323509,5.43720899655,1.64136363033,-65.7681768552,1694.11064984,16086.2706403,-844.787983796,712.274378547,215.018635573
1564084117.1,-0.00817818354307,0.096527074271,0.977151097183,-5.6244975986,3.57135069231,-1.52048265637,-133.99135917,1581.49958486,16009.6435762,-736.809185417,467.846940693,-199.183227984
1564084117.21,-0.000182630813767,0.0969329605939,0.970134229652,-13.3292234113,4.2813911956,-18.3478237037,-2.99222325275,1588.14962637,15894.6792186,-1746.12826687,560.862246623,-2403.56490519
1564084117.32,-6.671148239e-05,0.088777750472,0.974024127,-11.6046980167,2.52806123634,-34.2229649975,-1.09300092748,1454.53466373,15958.4112968,-1520.21544019,331.176021961,-4483.20841467
1564084117.44,-0.000523907521651,0.0873706785498,0.970420542425,-8.59689997075,4.23556045622,-34.5647906351,-8.58370083473,1431.48119736,15899.3701671,-1126.19389617,554.858419765,-4527.9875732
1564084117.55,0.00153043635551,0.0789021653823,0.970082589745,-6.54408020269,4.88528685335,-34.8899909609,25.0746692487,1292.73307762,15893.8331504,-857.274506552,639.972577788,-4570.58881588
1564084117.66,-0.00301713853004,0.0748693707191,0.971853627645,-5.38432867097,6.56469709931,-35.1216025519,-49.4327976761,1226.65976986,15922.8498353,-705.347055897,859.97532001,-4600.92993429
1564084117.78,-0.013408784052,0.0736812617722,0.969175100818,-4.47414007868,6.78532662602,-33.3895949684,-219.689517909,1207.19379288,15878.9648518,-586.112350307,888.877788009,-4374.03694086
1564084117.89,-0.0170239603343,0.0690719246575,0.967399192299,-4.14657339906,6.14190846724,-30.2857499754,-278.920566118,1131.67441359,15849.8683666,-543.201115276,804.590009208,-3967.43324678
1564084118.0,-0.0215959783634,0.0645084821917,0.963066499631,-5.28535117365,5.1315344144,-27.6129001687,-353.828509506,1056.90697223,15778.88153,-692.381003749,672.231008287,-3617.2899221
1564084118.12,-0.0425809117771,0.0638193527226,0.936828209043,-3.1529992624,3.23059471342,-20.5065719839,-697.645658555,1045.61627501,15348.993377,-413.042903374,423.207907458,-2686.36092989
1564084118.23,-0.0500903987244,0.0614901518253,0.941070192826,-3.25983674074,2.65944363903,-16.2986628771,-820.6810927,1007.45464751,15418.4940393,-427.038613036,348.387116712,-2135.1248369
1564084118.34,-0.0566047963519,0.0619085194553,0.945083290731,-3.54759352468,2.5049496568,-5.35276605504,-927.41298343,1014.30918276,15484.2446353,-464.734751733,328.148405041,-701.21235321
1564084118.45,-0.0603437307792,0.0614061440722,0.946229258533,-5.49359753099,2.24758446212,1.31075482527,-988.671685087,1006.07826448,15503.0201718,-719.66127656,294.433564537,171.708882111
1564084118.56,-0.0629763498888,0.06117373279,0.947236215492,-5.02286373209,2.24954357316,6.58044270152,-1031.80451658,1002.27043803,15519.5181546,-657.995148904,294.690208083,862.0379939
1564084118.67,-0.0676406289624,0.060232140761,0.949314351756,-3.4984399543,0.683367841794,8.16743659931,-1108.22406492,986.843394229,15553.5663392,-458.295634013,89.5211872751,1069.93419451
1564084118.79,-0.0662232457537,0.0633642001224,0.950232525955,-2.82111504284,0.15090892021,9.01099828289,-1085.00165843,1038.15905481,15568.6097052,-369.566070612,19.7690685476,1180.44077506
1564084118.9,-0.0710511164908,0.0579311004227,0.958651656172,-4.61839285153,0.577802761014,6.10073814926,-1164.10149259,949.143149325,15706.5487347,-605.009463551,75.6921616928,799.196697553
1564084119.01,-0.0741999110917,0.0625383810054,0.968816763992,-5.52601921523,-1.15402331661,6.3631834183,-1215.69134333,1024.62883439,15873.0938613,-723.908517196,-151.177054476,833.577027798
1564084119.12,-0.0757642949826,0.0580423554049,0.969762236031,-6.85433332424,-0.929460679609,5.99938416044,-1241.32220899,950.965950953,15888.5844751,-897.917665476,-121.759349029,785.919325018
1564084119.23,-0.0730462639218,0.0553875339269,0.968977418678,-6.08340380861,-0.938804687984,6.62539994287,-1196.78998809,907.469355858,15875.7260276,-796.925898928,-122.983414126,867.927392516
1564084119.35,-0.0732611687796,0.0530958508467,0.968930262747,-5.72620846592,-0.886145593232,6.99721109362,-1200.31098929,869.922420272,15874.9534249,-750.133309036,-116.085072713,916.634653264
1564084119.46,-0.0715502862767,0.0521075548245,0.969229619285,-5.24366395521,-1.09447759879,6.23718464075,-1172.27989036,853.730178245,15879.8580824,-686.919978132,-143.376565442,817.071187938
1564084119.57,-0.0681794373365,0.0545384009046,0.967838883919,-4.87807618564,-1.08350312136,6.80964938278,-1117.05190132,893.55716042,15857.0722741,-639.027980319,-141.938908898,892.064069144
1564084119.68,-0.0668546576653,0.0538941311266,0.966855776777,-4.48416169685,-1.03087800006,6.03784474985,-1095.34671119,883.001444378,15840.9650467,-587.425182287,-135.045018008,790.95766223
1564084119.8,-0.0657355981488,0.0540467102015,0.966996370974,-4.13498216838,-1.00717951303,5.59360225959,-1077.01204007,885.501299941,15843.268542,-541.682664058,-131.940516207,732.761896007
1564084119.91,-0.0647284445839,0.0534271954313,0.966732280752,-3.81079692864,-0.990431027378,4.95714279699,-1060.51083606,875.351169947,15838.9416878,-499.214397652,-129.746464587,649.385706406
1564084120.02,-0.0636266938755,0.0525278352632,0.967202607364,-3.70528975486,-0.939479527694,4.4255506547,-1042.45975246,860.616052952,15846.6475191,-485.392957887,-123.071818128,579.747135765
1564084120.13,-0.062879258863,0.0534273954869,0.96669816694,-3.37445543587,-0.884462872634,3.91352994037,-1030.21377721,875.354447657,15838.3827672,-442.053662098,-115.864636315,512.672422189
1564084120.25,-0.0620600829767,0.0542369996882,0.966024443996,-3.10113202968,-0.883802844913,3.40538305321,-1016.79239949,888.619002891,15827.3444904,-406.248295889,-115.778172684,446.10517997
1564084120.36,-0.061615793429,0.0533054872194,0.966028444909,-2.41391959007,-0.894659201643,3.01140963338,-1009.51315954,873.357102602,15827.4100414,-316.2234663,-117.200355415,394.494661973
1564084120.47,-0.0578223781486,0.0501477900599,0.965275209793,-1.52290931046,-0.60977343415,0.608741952487,-947.361843587,821.621392342,15815.0690373,-199.50111967,-79.8803198737,79.7451957757
1564084120.59,-0.0563370153338,0.0492345735539,0.963449837251,-0.584358837426,-0.695360976231,0.460081497696,-923.025659228,806.659253108,15785.1621335,-76.5510077028,-91.0922878863,60.2706761982
1564084120.7,-0.0551710872379,0.048632405261,0.963320673839,-0.87783135063,-0.704450832807,0.335447393728,-903.923093305,796.793327797,15783.0459202,-114.995906933,-92.2830590977,43.9436085784
1564084120.81,-0.0478961660141,0.190180297547,0.945797200205,-9.93126958961,-6.03247903197,-11.4362652846,-784.730783975,3115.91399502,15495.9413282,-1300.99631624,-790.254753188,-1498.15075228
1564084120.93,-0.0439366275377,0.17338394748,0.948190136434,-9.09997469172,-4.79029983106,-11.4498906645,-719.857705577,2840.72259552,15535.1471953,-1192.09668462,-627.529277869,-1499.93567705
1564084121.04,-0.0479902304089,0.16295473242,0.950929716541,-10.315931421,-4.43417061131,-11.0789473996,-786.27193502,2669.85033596,15580.0324758,-1351.38701615,-580.876350082,-1451.34210935
1564084121.15,-0.0493679651805,0.148099688865,0.955079908949,-10.1263230117,-5.57853980973,-16.1573122016,-808.844741518,2426.46530237,15648.0292282,-1326.54831454,-730.788715074,-2116.60789841
1564084121.27,-0.0410864421,0.147864915291,0.953199847742,-10.3381181915,-6.14282323333,-26.8644817448,-673.160267366,2422.61877213,15617.2263054,-1354.29348308,-804.709843567,-3519.24710857
1564084121.38,-0.0398830713275,0.13920635345,0.95663474578,-10.7004895784,-6.27968594817,-28.9536060894,-653.444240629,2280.75689492,15673.5036749,-1401.76413478,-822.63885921,-3792.92239771
1564084121.5,-0.0304260141947,0.121281811855,0.95967732589,-11.5479978725,-6.71583949076,-31.6506118927,-498.499816566,1987.08120543,15723.3533074,-1512.7877213,-879.774973289,-4146.23015794
1564084121.61,-0.0249175924628,0.113474919732,0.961878538613,-11.1267858715,-6.9686830226,-30.5809705507,-408.24983491,1859.17308488,15759.4179766,-1457.60894917,-912.89747596,-4006.10714215
1564084121.72,-0.013807669154,0.0922641465085,0.965031505064,-9.73013781872,-6.36723456766,-29.525163572,-226.224851419,1511.65577639,15811.076179,-1274.64805425,-834.107728364,-3867.79642793
1564084121.84,-0.0125489725511,0.0933892943576,0.963035190495,-7.82964312081,-4.79081645441,-24.0489830927,-205.602366277,1530.09019876,15778.3685611,-1025.68324883,-627.596955528,-3150.41678514
1564084121.95,-0.00565442685847,0.0839282946094,0.962141827696,-7.04591544995,-2.8712767937,-11.3173672262,-92.6421296492,1375.08117888,15763.731705,-923.014923944,-376.137259975,-1482.57510663
1564084122.06,-0.00567492167262,0.0812239417109,0.960361238676,-4.82223993549,-2.32002697693,2.06475117585,-92.9779166843,1330.77306099,15734.5585345,-631.71343155,-303.923533977,270.482404037
1564084122.18,-0.00642578888036,0.0820370944148,0.960321208559,-4.04993960607,-1.881917409,6.89873407353,-105.280125016,1344.09575489,15733.902681,-530.542088395,-246.53118058,903.734163633
1564084122.29,-0.00881055374233,0.0822074084109,0.96113967364,-2.98235022561,-1.07540505742,10.1088606662,-144.352112514,1346.8861794,15747.3124129,-390.687879555,-140.878062522,1324.26074727
1564084122.4,-0.0174753968056,0.0830686988198,0.961070628151,-0.53449688244,-1.67931493336,16.368966966,-286.316901263,1360.99756146,15746.1811716,-70.0190915996,-219.99025627,2144.33467254
1564084122.52,-0.014507154,0.0827940555003,0.959861026274,-0.701657881219,-1.21367351636,19.2870321014,-237.685211137,1356.49780532,15726.3630545,-91.9171824397,-158.991230643,2526.60120529
1564084122.63,-0.01510721985,0.0840605483878,0.959895431459,-1.81393484119,-1.42589395098,19.549168586,-247.516690023,1377.24802479,15726.926749,-237.625464196,-186.792107578,2560.94108476
1564084122.74,-0.0130838025525,0.083466993549,0.96114709925,-1.98215967768,-1.53444959405,20.705702109,-214.365021021,1367.52322231,15747.4340741,-259.662917776,-201.01289682,2712.44697628
1564084122.86,-0.0129472972973,0.0813947082566,0.960540201825,-2.49081393892,-2.05810387129,20.7374219745,-212.128518919,1333.57090008,15737.4906667,-326.296625999,-269.611607138,2716.60227866
1564084122.97,-0.00720920819255,0.0809212530559,0.959847509768,-2.52570201068,-2.30649195744,19.6667332121,-118.115667027,1325.81381007,15726.1416,-330.866963399,-302.150446425,2576.34205079
1564084123.08,-0.00563379518579,0.0783955340003,0.962397915041,-3.27389516839,-2.08881986093,21.5580751581,-92.304100324,1284.43242906,15767.92744,-428.880267059,-273.635401782,2824.10784571
1564084123.2,-0.00231162660471,0.0747063712253,0.962251873537,-3.35337588056,-2.1921516153,19.6266951232,-37.8736902916,1223.98918616,15765.534696,-439.292240353,-287.171861604,2571.09706114
1564084123.31,-0.000517963944242,0.0707757731653,0.960777662746,-3.20200775815,-1.98438683545,17.8441782826,-8.48632126246,1159.59026754,15741.3812264,-419.463016318,-259.954675444,2337.58735503
1564084123.42,0.00156019963768,0.0695087427237,0.962038763659,-3.31997492127,-1.63632983129,16.8773177063,25.5623108638,1138.83124079,15762.0431038,-434.916714686,-214.359207899,2210.92861952
1564084123.53,0.0160282031114,0.0578703684514,0.960952074793,-3.00095452838,-1.93300219167,16.2995095998,262.606079777,948.148116707,15744.2387934,-393.125043217,-253.223287109,2135.23575757
1564084123.65,0.0192105390503,0.0594075503562,0.960682062626,-3.05658426638,-2.1221447206,14.8100166551,314.7454718,973.333305037,15739.8149141,-400.412538896,-278.000958398,1940.11218181
1564084123.76,0.0217084304577,0.0588623031331,0.960072840738,-2.84787240463,-1.98931956152,13.6877936155,355.67092462,964.399974533,15729.8334227,-373.071285006,-260.600862558,1793.10096363
1564084123.87,0.024029774912,0.0562231431323,0.959963994165,-2.46155844661,-2.11176165117,12.3060371547,393.703832158,921.15997708,15728.0500804,-322.464156505,-276.640776303,1612.09086727
1564084123.98,0.0265096099208,0.0544338366316,0.959573063498,-2.43372321263,-2.00287556238,10.7571128286,434.333448942,891.843979372,15721.6450724,-318.817740855,-262.376698672,1409.18178054
1564084124.1,0.0289856020537,0.0528967029684,0.959343296211,-2.40332799061,-1.88121396034,9.53789009533,474.900104048,866.659581434,15717.8805651,-314.835966769,-246.439028805,1249.46360249
1564084124.21,0.0323126277858,0.0535640639216,0.960943146277,-2.30956007704,-1.53736737347,9.59631482625,529.410093643,877.593623291,15744.0925086,-302.552370092,-201.395125925,1257.11724224
1564084124.33,0.0378704275072,0.0514058997169,0.960966995712,-2.40913842048,-1.02485201017,11.0534772368,620.469084279,842.234260962,15744.4832577,-315.597133083,-134.255613332,1448.00551802
1564084124.45,0.038404673819,0.0515143331827,0.961061702391,-2.28501847156,-1.58190879389,8.47713714667,629.222175851,844.010834866,15746.034932,-299.337419775,-207.230051999,1110.50496621
1564084124.56,0.0400085423746,0.052442001427,0.961464321214,-2.12063876181,-1.54661867786,7.18209518773,655.499958266,859.209751379,15752.6314388,-277.803677797,-202.607046799,940.854469592
1564084124.68,0.0424530006372,0.0503716294093,0.961240740655,-2.0062848093,-1.42936139022,6.0302978827,695.549962439,825.288776241,15748.9682949,-262.823310018,-187.246342119,789.969022633
1564084124.79,0.0447994974484,0.0491918883433,0.960746549402,-1.91787006882,-1.81924967868,4.88681007916,733.994966195,805.959898617,15740.8714654,-251.240979016,-238.321707907,640.17212037
1564084124.9,0.0480832195786,0.045884027634,0.96103419915,-2.02989985583,-1.90373692455,3.14851075063,787.795469576,751.763908755,15745.5843189,-265.916881114,-249.389537117,412.454908333
1564084125.02,0.0507944288707,0.0460807811206,0.957338005797,-1.91240605346,-2.75076781225,1.57869784351,832.215922618,754.98751788,15685.025887,-250.525193003,-360.350583405,206.8094175
1564084125.13,0.0522823687962,0.045110398321,0.96084736928,-1.83872270002,-1.96271393179,-0.166194841606,856.594330356,739.088766092,15742.5232983,-240.872673703,-257.115525064,-21.7715242504
1564084125.24,0.0440267881665,0.0456042413014,0.960026304227,-1.47240768193,-2.4916333783,-2.70911734218,721.334897321,747.179889483,15729.0709685,-192.885406332,-326.403972558,-354.894371825
1564084125.36,0.0475586796624,0.0426795593588,0.965073478492,-2.2976859977,-2.62491278857,-2.50385446292,779.201407589,699.261900534,15811.7638716,-300.996865699,-343.863575302,-328.004934643
1564084125.47,0.0506397257587,0.0440268377979,0.964879607205,-2.27326090938,-2.63875738757,-2.790110238,829.68126683,721.335710481,15808.5874844,-297.797179129,-345.677217772,-365.504441179
1564084125.58,0.0548775109953,0.0431886071431,0.96326469336,-2.87494245203,-2.41533966408,-2.6683511226,899.113140147,707.602139433,15782.128736,-376.617461216,-316.409495995,-349.553997061
1564084125.7,0.0562256973958,0.0427515823663,0.964008536524,-2.33172301599,-2.54479806409,-2.40533280423,921.201826132,700.44192549,15794.3158624,-305.455715095,-333.368546395,-315.098597355
1564084125.81,0.0580250026562,0.0421629475672,0.963384050059,-2.30923773729,-2.53688314317,-2.36556288259,950.681643519,690.797732941,15784.0842762,-302.510143585,-332.331691756,-309.888737619
1564084125.93,0.0590096117656,0.0458568090605,0.958280996615,-2.64930632997,-2.45953070672,-2.32060964777,966.813479167,751.317959647,15700.4758485,-347.059129227,-322.19852258,-303.999863857
1564084126.04,0.070296150589,0.0511832375294,0.952443131329,-1.5370474527,-2.76853946811,0.169466584187,1151.73213125,838.586163682,15604.8282637,-201.353216304,-362.678670322,22.2001225285
1564084126.15,0.0664159495926,0.043257296589,0.952731044758,-1.71082362346,-2.95733437626,-0.0192357994226,1088.15891813,708.727547314,15609.5454373,-224.117894674,-387.41080329,-2.51988972436
1564084126.27,0.0691005265083,0.0416415278676,0.95176946372,-2.00157332218,-2.93641009894,-0.154716799633,1132.14302631,682.254792582,15593.7908936,-262.206105206,-384.669722961,-20.2679007519
1564084126.38,0.06944145042,0.0410174141433,0.953369861098,-2.16935492126,-2.45345611195,-0.246115348677,1137.72872368,672.029313324,15620.0118042,-284.185494686,-321.402750665,-32.2411106767
1564084126.49,0.070260977253,0.041066063354,0.954761390613,-2.1860072154,-2.24398836335,-0.296312974115,1151.15585131,672.826381992,15642.8106238,-286.366945217,-293.962475598,-38.8169996091
1564084126.6,0.0709253092152,0.0404750820186,0.956013767177,-2.12618511981,-2.07989487052,-0.35217785991,1162.04026618,663.143743793,15663.3295614,-278.530250695,-272.466228039,-46.1352996482
1564084126.71,0.0713278954812,0.0404803081917,0.956847937334,-2.03036050096,-1.94289774988,-0.403982974682,1168.63623956,663.229369413,15676.9966053,-265.977225626,-254.519605235,-52.9217696833
1564084126.82,0.0716902231206,0.0400699726851,0.957696346726,-1.96091223712,-1.80509652451,-0.434577043626,1174.57261561,656.506432472,15690.8969448,-256.879503063,-236.467644711,-56.929592715
1564084126.94,0.071772177371,0.0395053582291,0.957971633928,-1.90527902868,-1.66046473466,-0.488829262928,1175.91535405,647.255789225,15695.4072503,-249.591552757,-217.52088024,-64.0366334435
1564084127.05,0.0718703502589,0.0392413458436,0.958341462723,-1.84986562963,-1.57762436806,-0.558266947322,1177.52381864,642.930210302,15701.4665253,-242.332397481,-206.668792216,-73.1329700992
1564084127.16,0.072056362108,0.0391258050093,0.958723136763,-1.81068059338,-1.49161765645,-0.584883000681,1180.57143678,641.037189272,15707.7198727,-237.199157733,-195.401912994,-76.6196730892
1564084127.27,0.0723458430847,0.0385823651334,0.959286369962,-1.76778047298,-1.44169253202,-0.603493937254,1185.3142931,632.133470345,15716.9478855,-231.57924196,-188.861721695,-79.0577057803
1564084127.39,0.0728505165887,0.038288581745,0.959134100153,-1.72382685316,-1.37538587424,-0.629404085514,1193.58286379,627.32012331,15714.4530969,-225.821317764,-180.175549526,-82.4519352023
1564084127.51,0.0732070664924,0.0380730048205,0.959753893263,-1.69342890067,-1.31112972956,-0.638982760932,1199.42457741,623.788110979,15724.6077872,-221.839185987,-171.757994573,-83.7067416821
1564084127.62,0.0732105785931,0.0381231262135,0.960311707062,-1.6668341022,-1.23650530623,-0.671267690945,1199.48211967,624.609299881,15733.7470085,-218.355267389,-161.982195116,-87.9360675138
1564084127.74,0.0735555363588,0.0378508526546,0.961253192605,-1.65282244771,-1.18613721835,-0.682003517271,1205.1339077,620.148369893,15749.1723076,-216.51974065,-155.383975604,-89.3424607625
1564084127.85,0.0737683420979,0.0379231892642,0.961539006157,-1.61654783653,-1.12859219881,-0.712276447986,1208.62051693,621.333532904,15753.8550769,-211.767766585,-147.845578044,-93.3082146862
1564084127.96,0.0740575235131,0.0375488390877,0.961332371167,-1.571686946,-1.08061847511,-0.738758726852,1213.35846524,615.200179614,15750.4695692,-205.890989926,-141.561020239,-96.7773932176
1564084128.08,0.0729261852243,0.037260752054,0.96129288405,-1.54810603766,-1.03515204745,-0.761829419052,1194.82261872,610.480161652,15749.8226123,-202.801890934,-135.604918215,-99.7996538958
1564084128.19,0.0732019260769,0.0371967862236,0.961257345645,-1.51161604458,-1.01789638469,-0.747478538216,1199.34035684,609.432145487,15749.240351,-198.02170184,-133.344426394,-97.9196885063
1564084128.31,0.0734256787817,0.0372124591637,0.961469501705,-1.48793535616,-0.972595295836,-0.768913890501,1203.00632116,609.688930938,15752.7163159,-194.919531656,-127.409983754,-100.727719656
1564084128.42,0.073529399966,0.0369580101223,0.961513957785,-1.4620425839,-0.927244163199,-0.801182806794,1204.70568904,605.520037844,15753.4446843,-191.527578491,-121.468985379,-104.95494769
1564084128.53,0.0738668896569,0.0374614278601,0.961993421381,-1.45324290566,-0.897115166726,-0.830988190237,1210.23512014,613.76803406,15761.3002159,-190.374820642,-117.522086841,-108.859452921
1564084128.65,0.0742682866287,0.0370844256991,0.962034313618,-1.43234609601,-0.877632657687,-0.837202348313,1216.81160813,607.591230654,15761.9701943,-187.637338577,-114.969878157,-109.673507629
1564084128.76,0.0744342314034,0.0368916081292,0.961436351006,-1.40895881465,-0.847121300315,-0.851955395924,1219.53044731,604.432107589,15752.1731749,-184.57360472,-110.972890341,-111.606156866
1564084128.87,0.074461511388,0.0365960020038,0.961728262781,-1.41691789502,-0.851722147383,-0.859889627324,1219.97740258,599.58889683,15756.9558574,-185.616244248,-111.575601307,-112.645541179
1564084128.99,0.0746569618117,0.0365496830534,0.96201539744,-1.40881389178,-0.817694970813,-0.88611440505,1223.17966232,598.830007147,15761.6602717,-184.554619823,-107.118041176,-116.080987062
1564084129.1,0.0746375546931,0.0367033084981,0.962224990509,-1.42289433466,-0.839742267625,-0.902846475995,1222.86169609,601.347006432,15765.0942445,-186.399157841,-110.006237059,-118.272888355
1564084129.21,0.0750351273487,0.0369392276482,0.962462452395,-1.401978947,-0.824470330938,-0.900348087938,1229.37552648,605.212305789,15768.98482,-183.659242057,-108.005613353,-117.94559952
1564084129.33,0.0747825911764,0.0369318283209,0.962212300906,-1.39307876222,-0.796221771127,-0.914893431816,1225.23797383,605.09107521,15764.886338,-182.493317851,-104.305052018,-119.851039568
1564084129.44,0.0749215195587,0.0367786845513,0.962548688003,-1.37285485546,-0.785301884091,-0.910426989397,1227.51417645,602.581967689,15770.3977042,-179.843986066,-102.874546816,-119.265935611
1564084129.56,0.0747535863529,0.0366896832837,0.962509639515,-1.35923349206,-0.765550321636,-0.897246885877,1224.76275881,601.12377092,15769.7579338,-178.059587459,-100.287092134,-117.53934205
1564084129.67,0.0747977589676,0.0365363399553,0.962303597438,-1.33857731842,-0.769911320007,-0.892255021717,1225.48648292,598.611393828,15766.3821404,-175.353628713,-100.858382921,-116.885407845
1564084129.78,0.0748619283833,0.0362518465848,0.962826167382,-1.35433790719,-0.752462172739,-0.892342496645,1226.53783463,593.950254445,15774.9439264,-177.418265842,-98.5725446288,-116.89686706
1564084129.89,0.074797610545,0.0360202166138,0.962661714706,-1.34714839128,-0.725307558518,-0.891657865301,1225.48405117,590.155229001,15772.2495337,-176.476439258,-95.0152901659,-116.807180354
1564084130.01,0.074861794803,0.0358849918274,0.962855504173,-1.32083049872,-0.701631764499,-0.89714856732,1226.53564605,587.939706101,15775.4245804,-173.028795332,-91.9137611493,-117.526462319
1564084130.12,0.0749195606352,0.0361050863947,0.962956672506,-1.34218256335,-0.716201412476,-0.923464244939,1227.48208145,591.545735491,15777.0821223,-175.825915799,-93.8223850344,-120.973816087
1564084130.24,0.0748738936342,0.0359125465052,0.962974481818,-1.33544522305,-0.715573637641,-0.940278125789,1226.7338733,588.391161942,15777.3739101,-174.943324219,-93.7401465309,-123.176434478
1564084130.36,0.0750281058333,0.0358125027922,0.962795197699,-1.32174802899,-0.72569566319,-0.939380084203,1229.26048597,586.752045747,15774.4365191,-173.148991797,-95.0661318778,-123.058791031
1564084130.47,0.0747518577499,0.0360154322005,0.962829154491,-1.31552742456,-0.718011593054,-0.94696879334,1224.73443737,590.076841173,15774.9928672,-172.334092617,-94.0595186901,-124.052911927
1564084130.58,0.0750159297874,0.0359295139804,0.963128270292,-1.31679910958,-0.743920357413,-0.946928402555,1229.06099364,588.669157055,15779.8935805,-172.500683356,-97.4535668211,-124.047620735
1564084130.69,0.0751803524337,0.0360475000824,0.963250990138,-1.30496652687,-0.735940535412,-0.933151592834,1231.75489427,590.60224135,15781.9042224,-170.95061502,-96.4082101389,-122.242858661
1564084130.81,0.0751818484403,0.0360072031991,0.963141711437,-1.30653094289,-0.737919000955,-0.926095975535,1231.77940485,589.942017215,15780.1138002,-171.155553518,-96.6673891251,-121.318572795
1564084130.92,0.0751343667213,0.0363615610042,0.963214259043,-1.30259540585,-0.721379009256,-0.936539813096,1231.00146436,595.747815493,15781.3024202,-170.639998166,-94.5006502125,-122.686715516
1564084131.03,0.0750183909867,0.0362166158413,0.963279551889,-1.29523662862,-0.708019734285,-0.948992702016,1229.10131793,593.373033944,15782.3721781,-169.67599835,-92.7505851913,-124.318043964
1564084131.14,0.0752558097005,0.0362814776947,0.963362729512,-1.29930075202,-0.68530936391,-0.950276637921,1232.99118613,594.43573055,15783.7349603,-170.208398515,-89.7755266722,-124.486239568
1564084131.26,0.0748835490429,0.0359980564877,0.963828214374,-1.2915080814,-0.683954000038,-0.959829126801,1226.89206752,589.792157495,15791.3614643,-169.187558663,-89.5979740049,-125.737615611
1564084131.37,0.0746217566387,0.0362068445889,0.963856525749,-1.30663208242,-0.675863943545,-0.966136290456,1222.60286077,593.212941745,15791.8253179,-171.168802797,-88.5381766045,-126.56385405
1564084131.48,0.0744105575373,0.036345925755,0.963906420049,-1.30039635509,-0.685376785832,-0.978682966754,1219.14257469,595.491647571,15792.6427861,-170.351922517,-89.784358944,-128.207468645
1564084131.6,0.0742693064711,0.036544340992,0.964000153044,-1.30165442951,-0.667984145417,-0.973944441071,1216.82831722,598.742482814,15794.1785075,-170.516730265,-87.5059230496,-127.58672178
1564084131.72,0.0742886648865,0.0360881490803,0.964108926802,-1.29896990259,-0.657674280493,-0.994870607651,1217.1454855,591.268234532,15795.9606567,-170.165057239,-86.1553307446,-130.328049602
1564084131.83,0.0740375327728,0.0359217169848,0.963596471622,-1.29350039324,-0.656792348627,-0.997673623222,1213.03093695,588.541411079,15787.5645911,-169.448551515,-86.0397976702,-130.695244642
1564084131.95,0.074275381058,0.0357719280988,0.963086433835,-1.28247096461,-0.655998609948,-0.991036031892,1216.92784325,586.087269971,15779.2081319,-168.003696364,-85.9358179032,-129.825720178
1564084132.06,0.0742208898272,0.0360033290389,0.963042438889,-1.28246814296,-0.672841497045,-1.00567288672,1216.03505893,589.878542974,15778.4873188,-168.003326727,-88.1422361128,-131.74314816
1564084132.18,0.074147433657,0.0360406914475,0.9634178825,-1.31299995461,-0.66662604963,-0.995181933924,1214.83155304,590.490688677,15784.6385869,-172.002994054,-87.3280125016,-130.368833344
1564084132.29,0.0742033934163,0.0360254894903,0.963413984875,-1.31528774541,-0.661795505736,-0.988793511524,1215.74839773,590.241619809,15784.5747282,-172.302694649,-86.6952112514,-129.53195001
1564084132.4,0.0737166478247,0.0360118077288,0.9636790317,-1.30665973423,-0.667371680353,-1.00060118327,1207.77355796,590.017457828,15788.9172554,-171.172425184,-87.4256901263,-131.078755009
1564084132.52,0.0736936158547,0.0364389472684,0.96408847228,-1.32179528752,-0.696054359646,-0.983747171815,1207.39620216,597.015712045,15795.6255298,-173.155182666,-91.1831211136,-128.870879508
1564084132.63,0.0738681995817,0.035846810354,0.964041929739,-1.31480659847,-0.714235183223,-0.981555660741,1210.25658195,587.314140841,15794.8629769,-172.239664399,-93.5648090023,-128.583791557
1564084132.74,0.0736835280611,0.0355091996311,0.963853557078,-1.28179922106,-0.698536855741,-0.988743606117,1207.23092375,581.782726757,15791.7766792,-167.915697959,-91.508328102,-129.525412401
1564084132.86,0.0736149799425,0.0353030062305,0.96365960762,-1.28873380277,-0.713415994594,-0.979945581383,1206.10783138,578.404454081,15788.5990112,-168.824128163,-93.4574952918,-128.372871161
1564084132.97,0.0732847319482,0.0351418462325,0.963924506233,-1.29573828509,-0.715356837883,-0.965157130115,1200.69704824,575.764008673,15792.9391101,-169.741715347,-93.7117457627,-126.435584045
1564084133.08,0.0734757900034,0.0353141850467,0.963772289985,-1.28830186116,-0.722447108293,-0.938870424737,1203.82734342,578.587607806,15790.4451991,-168.767543812,-94.6405711864,-122.992025641
1564084133.2,0.0734280156905,0.0350298368546,0.963171428174,-1.28008236207,-0.744095527235,-0.9579604815,1203.04460907,573.928847025,15780.6006792,-167.690789431,-97.4765140678,-125.492823077
1564084133.31,0.073531503184,0.0349448219191,0.962655066606,-1.28031840067,-0.737624905809,-0.953004128007,1204.74014817,572.535962323,15772.1406113,-167.721710488,-96.628862661,-124.843540769
1564084133.42,0.0736978841156,0.0348194803522,0.962727450571,-1.30648503389,-0.711954018282,-0.949306768641,1207.46613335,570.48236609,15773.3265502,-171.149539439,-93.2659763949,-124.359186692
1564084133.54,0.0736767285165,0.034853157317,0.962694939889,-1.32163805722,-0.720911288209,-0.959719603227,1207.11952001,571.034129481,15772.7938951,-173.134585495,-94.4393787554,-125.723268023
1564084133.65,0.0734379619149,0.0345904978353,0.962543609962,-1.34825287745,-0.722102602136,-0.979014818477,1203.20756801,566.730716533,15770.3145056,-176.621126946,-94.5954408799,-128.250941221
1564084133.77,0.0735648688484,0.0343296902392,0.962529483341,-1.36151919276,-0.71783127322,-0.93607516869,1205.28681121,562.45764488,15770.0830551,-178.359014251,-94.0358967919,-122.625847098
1564084133.88,0.0732640460261,0.0344855884028,0.962126144382,-1.36811536508,-0.707116848188,-0.955444751058,1200.35813009,565.011880392,15763.4747496,-179.223112826,-92.6323071127,-125.163262389
1564084133.99,0.0734571726734,0.0345038264375,0.962446733069,-1.38626566064,-0.711977682454,-0.955320123281,1203.52231708,565.310692353,15768.7272746,-181.600801543,-93.2690764014,-125.14693615
1564084134.11,0.0734356741561,0.0343493422313,0.962442294137,-1.3896238274,-0.702611975277,-0.975055286525,1203.17008537,562.779623117,15768.6545471,-182.040721389,-92.0421687613,-127.732242535
1564084134.22,0.0734651536155,0.0341858923832,0.962902166286,-1.37356220802,-0.68731260981,-0.944725330392,1203.65307684,560.101660806,15776.1890924,-179.93664925,-90.0379518851,-123.759018281
1564084134.33,0.0733207866914,0.0338434750198,0.96282776997,-1.37132049103,-0.67354318089,-0.938802415673,1201.28776915,554.491494725,15774.9701832,-179.642984325,-88.2341566966,-122.983116453
1564084134.45,0.0731420283348,0.0335597134554,0.96222370391,-1.34640218239,-0.676417870435,-0.939578662655,1198.35899224,549.842345253,15765.0731649,-176.378685893,-88.610741027,-123.084804808
1564084134.56,0.0733229426888,0.0348668280473,0.962143911644,-1.35527341453,-0.6263333353,-0.920429956695,1201.32309301,571.258110727,15763.7658484,-177.540817303,-82.0496669243,-120.576324327
1564084134.67,0.0732904531074,0.0347736999301,0.961486161105,-1.35486057689,-0.628585497953,-0.948997648049,1200.79078371,569.732299655,15752.9892635,-177.486735573,-82.3447002318,-124.318691894
1564084134.79,0.0732367984217,0.0347875408746,0.961358052807,-1.34609207646,-0.645879619913,-0.936540631335,1199.91170534,569.959069689,15750.8903372,-176.338062016,-84.6102302087,-122.686822705
1564084134.9,0.0730420248295,0.0344826149121,0.961584552214,-1.34659737263,-0.673658070136,-0.913878934614,1196.72053481,564.96316272,15754.6013035,-176.404255814,-88.2492071878,-119.718140434
1564084135.01,0.0731352832841,0.0344034940459,0.96198371418,-1.35392236819,-0.673467835641,-0.911040659473,1198.24848133,563.666846448,15761.1411731,-177.363830233,-88.224286469,-119.346326391
1564084135.13,0.0734389424557,0.0342102149538,0.962489444324,-1.35364463519,-0.690853876505,-0.900089265282,1203.22363319,560.500161803,15769.4270558,-177.327447209,-90.5018578221,-117.911693752
1564084135.24,0.0735657513351,0.0340118497084,0.962724874892,-1.34652444648,-0.674440244579,-0.89557652196,1205.30126987,557.250145623,15773.2843502,-176.394702489,-88.3516720399,-117.320524377
1564084135.35,0.0736066371391,0.0336380084876,0.962692621778,-1.34240635297,-0.672645075083,-0.89685856442,1205.97114289,551.125131061,15772.7559152,-175.85523224,-88.1165048359,-117.488471939
1564084135.47,0.0736190203002,0.0336433482638,0.962102070537,-1.35320388562,-0.69164010956,-0.907172707978,1206.1740286,551.212617955,15763.0803237,-177.269709016,-90.6048543523,-118.839624745
1564084135.58,0.0737766495202,0.0333063571875,0.962156511921,-1.34536441308,-0.701102052802,-0.903478337944,1208.75662574,545.691356159,15763.9722913,-176.242738114,-91.8443689171,-118.355662271
1564084135.71,0.0738696876931,0.0344679089687,0.962229923229,-1.35739285727,-0.7210681834,-0.915420580485,1210.28096316,564.722220543,15765.1750622,-177.818464303,-94.4599320254,-119.920096044
1564084135.82,0.0737336954863,0.0342437743218,0.962466891844,-1.36516502193,-0.7046865559,-0.918535010986,1208.05286685,561.049998489,15769.057556,-178.836617872,-92.3139388228,-120.328086439
1564084135.93,0.0738066150002,0.0342617797022,0.964413562034,-1.33246531363,-0.712843854508,-0.912941051872,1209.24758016,561.34499864,15800.9518004,-174.552956085,-93.3825449406,-119.595277795
1564084136.05,0.0740919691252,0.0326910704819,0.964529823018,-1.32517298074,-0.72323885837,-0.934624045922,1213.92282215,535.610498776,15802.8566203,-173.597660477,-94.7442904465,-122.435750016
1564084136.16,0.0740802331502,0.0326202056212,0.964487973529,-1.32548011015,-0.696716499251,-0.90757385507,1213.73053993,534.449448898,15802.1709583,-173.637894429,-91.2698614019,-118.892175014
1564084136.27,0.0743870535851,0.0309450991216,0.964425894926,-1.31277942737,-0.694983780623,-0.903076011548,1218.75748594,507.004504009,15801.1538625,-171.974104986,-91.0428752617,-118.302957513
1564084136.39,0.0740528404141,0.0296572298345,0.964418852308,-1.30134881288,-0.730828914011,-0.882234059248,1213.28173735,485.904053608,15801.0384762,-170.476694488,-95.7385877355,-115.572661761
1564084136.5,0.0741670876227,0.0295967802885,0.964168373328,-1.31854217587,-0.725684953908,-0.886377065537,1215.15356361,484.913648247,15796.9346286,-172.729025039,-95.0647289619,-116.115395585
1564084136.61,0.0758324101104,0.0299330006972,0.964016184432,-1.29813833996,-0.694337832563,-0.926746992571,1242.43820725,490.422283422,15794.4411657,-170.056122535,-90.9582560658,-121.403856027
1564084136.73,0.0755489737869,0.0306262240649,0.964343081614,-1.3171794678,-0.725667408085,-0.940179163543,1237.79438652,501.78005508,15799.7970492,-172.550510281,-95.0624304592,-123.163470424
1564084136.84,0.0755380217207,0.0291505157209,0.964319906265,-1.33049968896,-0.724093033689,-0.94539788841,1237.61494787,477.602049572,15799.4173442,-174.295459253,-94.8561874133,-123.847123382
1564084136.96,0.0751863679861,0.0293604641489,0.964225806264,-1.33790773533,-0.709698997496,-0.934827565218,1231.85345308,481.041844615,15797.8756098,-175.265913328,-92.9705686719,-122.462411044
1564084137.07,0.0750407780625,0.029061136484,0.963945803762,-1.33159787783,-0.716591693166,-0.923787556788,1229.46810778,476.137660153,15793.2880488,-174.439321995,-93.8735118047,-121.016169939
1564084137.18,0.0749829893188,0.0292311947106,0.963791457761,-1.32210221218,-0.720505042933,-0.923011854544,1228.521297,478.923894138,15790.759244,-173.195389796,-94.3861606243,-120.914552945
1564084137.3,0.0746135966369,0.027894989302,0.963115436985,-1.31660954821,-0.734714080625,-0.93605418054,1222.4691673,457.031504724,15779.6833196,-172.475850816,-96.2475445618,-122.623097651
1564084137.41,0.0747450104107,0.0283281466218,0.962922057349,-1.30479592164,-0.733761756532,-0.929471663249,1224.62225057,464.128354252,15776.5149876,-170.928265734,-96.1227901057,-121.760787886
1564084137.52,0.0743750015571,0.0287912303971,0.963114226614,-1.31706442108,-0.732141306069,-0.909806939673,1218.56002551,471.715518827,15779.6634888,-172.535439161,-95.9105110951,-119.184709097
1564084137.64,0.0742617201514,0.0288173807949,0.963189522703,-1.312838895,-0.70472870218,-0.893635406011,1216.70402296,472.143966944,15780.89714,-171.981895245,-92.3194599856,-117.066238187
1564084137.75,0.0742085950113,0.0292559552154,0.963281703245,-1.31208935664,-0.696087893031,-0.88747797228,1215.83362066,479.32957025,15782.407426,-171.88370572,-91.187513987,-116.259614369
1564084137.86,0.0739166417602,0.0291379768814,0.963413493858,-1.32362851258,-0.700524905254,-0.893386663601,1211.0502586,477.396613225,15784.5666834,-173.395335148,-91.7687625883,-117.033652932
1564084137.98,0.0736538838341,0.0291782807557,0.963385621035,-1.32867024148,-0.711388445263,-0.878093798768,1206.74523274,478.056951902,15784.110015,-174.055801634,-93.1918863295,-115.030287639
1564084138.09,0.0738568548257,0.0292877964302,0.963287293306,-1.33473451504,-0.7272725015,-0.895627930342,1210.07070946,479.851256712,15782.4990135,-174.85022147,-95.2726976965,-117.327258875
1564084138.2,0.0741127709057,0.0292642902247,0.963198798351,-1.34400915514,-0.722484182648,-0.909118572422,1214.26363852,479.466131041,15781.0491122,-176.065199323,-94.6454279269,-119.094532987
1564084138.32,0.0740501266276,0.0296581737022,0.963656262265,-1.35464640756,-0.726571642246,-0.905992974722,1213.23727467,485.919517937,15788.544201,-177.458679391,-95.1808851342,-118.685079689
1564084138.43,0.0741158170898,0.029475559457,0.964141221976,-1.35047947673,-0.723380126876,-0.932950929158,1214.3135472,482.927566143,15796.4897809,-176.912811452,-94.7627966208,-122.21657172
1564084138.54,0.0735401728808,0.0294821050738,0.965773974779,-1.33756893364,-0.71669096915,-0.960266523265,1204.88219248,483.034809529,15823.2408028,-175.221530307,-93.8865169587,-125.794914548
1564084138.65,0.0738521712178,0.0296588945664,0.965876264801,-1.33434639142,-0.690823398953,-0.926071932007,1209.99397323,485.931328576,15824.9167225,-174.799377276,-90.4978652628,-121.315423093
1564084138.76,0.073595860346,0.0309654660473,0.965309146133,-1.35511022556,-0.693496784248,-0.932701380028,1205.79457591,507.338195718,15815.6250502,-177.519439548,-90.8480787365,-122.183880784
1564084138.87,0.0735360789989,0.030823021005,0.964920809645,-1.33333966102,-0.667658556205,-0.945538112254,1204.81511832,505.004376146,15809.2625452,-174.667495594,-87.4632708629,-123.865492705
1564084138.98,0.073702002349,0.030743648592,0.964766619305,-1.31908966438,-0.669594990661,-0.963198041487,1207.53360649,503.703938532,15806.7362907,-172.800746034,-87.7169437766,-126.178943435
1564084139.1,0.0737780911766,0.0310628384203,0.964627848,-1.30626466741,-0.653017170984,-0.958481290773,1208.78024584,508.933544679,15804.4626616,-171.120671431,-85.5452493989,-125.561049091
1564084139.21,0.0735780164339,0.0324243280158,0.964307641325,-1.32220308617,-0.659471179077,-0.948129344902,1205.50222125,531.240190211,15799.2163955,-173.208604288,-86.390724459,-124.204944182
1564084139.32,0.073764160103,0.0308420514642,0.963897385005,-1.28998277755,-0.684363755826,-0.952553051633,1208.55199913,505.31617119,15792.4947559,-168.987743859,-89.6516520131,-124.784449764
1564084139.44,0.0734189940927,0.0293691744428,0.963259599629,-1.28617533949,-0.689209822991,-0.95729774647,1202.89679922,481.184554071,15782.0452803,-168.488969473,-90.2864868118,-125.406004788
1564084139.56,0.0734989696835,0.0291178038735,0.963149459979,-1.29343566814,-0.695861359776,-0.978361864953,1204.20711929,477.066098664,15780.2407523,-169.440072526,-91.1578381306,-128.165404309
1564084139.68,0.0738639164651,0.0290868828612,0.964661662419,-1.28546614712,-0.701084384104,-0.972128731892,1210.18640736,476.559488797,15805.0166771,-168.396065273,-91.8420543176,-127.348863878
1564084139.79,0.0738749857561,0.0291567102,0.964435730552,-1.30195770035,-0.690517930426,-0.981022728932,1210.36776663,477.703539918,15801.3150094,-170.556458746,-90.4578488858,-128.51397749
1564084139.9,0.0742999871805,0.0293416251175,0.964427704372,-1.28702910589,-0.706198961811,-0.963073127795,1217.33098997,480.733185926,15801.1835084,-168.600812871,-92.5120639972,-126.162579741
1564084140.02,0.0738768243999,0.0297277751058,0.964444894872,-1.27741016476,-0.739395859523,-0.97516276158,1210.39789097,487.059867333,15801.4651576,-167.340731584,-96.8608575975,-127.746321767
1564084140.13,0.073569220085,0.0294405444702,0.964484780385,-1.28783708722,-0.721944823189,-0.960089233514,1205.35810187,482.3538806,15802.1186418,-168.706658426,-94.5747718378,-125.77168959
1564084140.24,0.073560930889,0.0294994197107,0.964545091409,-1.29951139376,-0.703185455374,-0.93736275291,1205.22229168,483.31849254,15803.1067776,-170.235992583,-92.117294654,-122.794520631
1564084140.36,0.0735534706126,0.0281852199271,0.963842535393,-1.30543811698,-0.718363093043,-0.939046324948,1205.10006252,461.786643286,15791.5960999,-171.012393325,-94.1055651886,-123.015068568
1564084140.47,0.0733514438638,0.0271000963719,0.963307891229,-1.29474163353,-0.720572585265,-0.932927951995,1201.79005626,444.007978957,15782.8364899,-169.611153992,-94.3950086697,-122.213561711
1564084140.58,0.0733893463524,0.0260990711097,0.963534719293,-1.27442777552,-0.715690899258,-0.939635156795,1202.41105064,427.607181062,15786.5528409,-166.950038593,-93.7555078028,-123.09220554
1564084140.7,0.0733013882797,0.0265409218112,0.962859958301,-1.27370255522,-0.725801198645,-0.940328129665,1200.96994557,434.846462955,15775.4975568,-166.855034734,-95.0799570225,-123.182984986
1564084140.81,0.0731978119517,0.0267188608801,0.962716540596,-1.27304985695,-0.728793597864,-0.973012873951,1199.27295102,437.76181666,15773.1478011,-166.76953126,-95.4719613202,-127.464686488
1564084140.93,0.072982522944,0.0268790060421,0.962685120912,-1.28467616896,-0.725379886933,-0.993268838464,1195.74565592,440.385634994,15772.633021,-168.292578134,-95.0247651882,-130.118217839
1564084141.04,0.0730084893996,0.0272184491879,0.96260801507,-1.30659023146,-0.710093806637,-0.974857985152,1196.17109032,445.947071495,15771.3697189,-171.163320321,-93.0222886694,-127.706396055
1564084141.15,0.0722506092097,0.0277192605191,0.962392135438,-1.29577853656,-0.717710380171,-0.990349285874,1183.75398129,454.152364345,15767.832747,-169.746988289,-94.0200598025,-129.735756449
1564084141.26,0.0722521107887,0.0282676469672,0.96151425002,-1.31734572107,-0.723038578795,-1.00810825042,1183.77858316,463.137127911,15753.4494723,-172.57228946,-94.7180538222,-132.062180804
1564084141.38,0.0721802200223,0.028053186958,0.961700715643,-1.30469511843,-0.701879759084,-0.991266891023,1182.60072485,459.623415119,15756.5045251,-170.915060514,-91.94624844,-129.855962724
1564084141.49,0.0724329011451,0.0283484541997,0.961575565953,-1.29941644628,-0.694287203023,-0.988323408028,1186.74065236,464.461073608,15754.4540726,-170.223554463,-90.951623596,-129.470366452
1564084141.6,0.0725626579056,0.0284432962797,0.962293009358,-1.27710838944,-0.673713444553,-0.984147555775,1188.86658713,466.014966247,15766.2086653,-167.301199016,-88.2564612364,-128.923329806
1564084141.72,0.0726061968025,0.0300667400892,0.962157458422,-1.31122961156,-0.683441336739,-0.95061829638,1189.57992841,492.613469622,15763.9877988,-171.771079115,-89.5308151127,-124.530996826
1564084141.83,0.0727674521223,0.0299897535803,0.962181946955,-1.30453413132,-0.68456285192,-0.937999214834,1192.22193557,491.35212266,15764.3890189,-170.893971203,-89.6777336015,-122.877897143
1564084141.94,0.0725707850351,0.0297251532223,0.961813361635,-1.29392804643,-0.720686719399,-0.942672575793,1188.99974201,487.016910394,15758.350117,-169.504574083,-94.4099602413,-123.490107429
1564084142.06,0.0729308940315,0.0294870129001,0.961676947346,-1.29506959294,-0.731060795551,-0.937718295313,1194.89976781,483.115219355,15756.1151053,-169.654116675,-95.7689642172,-122.841096686
1564084142.17,0.0729620233784,0.0291262022351,0.961529760424,-1.30067713746,-0.741924181645,-0.930969366545,1195.40979103,477.203697419,15753.7035948,-170.388705007,-97.1920677955,-121.956987017
1564084142.29,0.0728679694781,0.0294850663865,0.961861159382,-1.29732698097,-0.739487488671,-0.940162506227,1193.86881193,483.083327677,15759.1332353,-169.949834506,-96.8728610159,-123.161288316
1564084142.4,0.0730762897177,0.0291488644354,0.961842035631,-1.25767061875,-0.73424102988,-0.938512667818,1197.28193074,477.574994909,15758.8199118,-164.754851056,-96.1855749143,-122.945159484
1564084142.51,0.0731172935585,0.0290415951794,0.961751582068,-1.26167454924,-0.731809293305,-0.952294988822,1197.95373766,475.817495419,15757.3379206,-165.27936595,-95.8670174229,-124.750643536
1564084142.63,0.0731786110776,0.0291891934739,0.961572517611,-1.25688114012,-0.722750501379,-0.950958619711,1198.9583639,478.235745877,15754.4041285,-164.651429355,-94.6803156806,-124.575579182
1564084142.74,0.0731117265324,0.0289069928765,0.961460187725,-1.28233806427,-0.732918199332,-0.939832223389,1197.86252751,473.612171289,15752.5637157,-167.98628642,-96.0122841125,-123.118021264
1564084142.85,0.0728806320041,0.0285553560889,0.961822958015,-1.24570731128,-0.71458821146,-0.935161978149,1194.07627476,467.85095416,15758.5073441,-163.187657778,-93.6110557013,-122.506219138
1564084142.97,0.0729412016162,0.02872716423,0.961514685651,-1.24556406107,-0.704961451383,-0.906531276517,1195.06864728,470.665858744,15753.4566097,-163.168892,-92.3499501312,-118.755597224
1564084143.08,0.0725074330171,0.0288085493695,0.961749935836,-1.24619849466,-0.718434771894,-0.912824713751,1187.96178255,471.99927287,15757.3109487,-163.2520028,-94.114955118,-119.580037501
1564084143.19,0.0724344240904,0.0305663663075,0.962010489127,-1.24982292,-0.716820302338,-0.912381937032,1186.7656043,500.799345583,15761.5798539,-163.72680252,-93.9034596062,-119.522033751
1564084143.31,0.0724419582438,0.0301708624893,0.961927604277,-1.27980246006,-0.690939798822,-0.922670460886,1186.88904387,494.319411024,15760.2218685,-167.654122268,-90.5131136456,-120.869830376
1564084143.42,0.0721801842945,0.0301811199904,0.961804179787,-1.29915045833,-0.68825803268,-0.955594254493,1182.60013948,494.487469922,15758.1996816,-170.188710041,-90.1618022811,-125.182847339
1564084143.53,0.072384040865,0.0299950392413,0.961839582121,-1.28526594685,-0.704165053839,-0.946294371028,1185.94012553,491.43872293,15758.7797135,-168.369839037,-92.245622053,-123.964562605
1564084143.65,0.0728116524035,0.0315609650047,0.961554061409,-1.29719736743,-0.707794349982,-0.96006188049,1192.94611298,517.094850637,15754.1017421,-169.932855133,-92.7210598477,-125.768106344
1564084143.76,0.0728547059132,0.0313101419417,0.96229806933,-1.27511121847,-0.715640869182,-0.94268164664,1193.65150168,512.985365573,15766.2915679,-167.03956962,-93.7489538629,-123.49129571
1564084143.88,0.0728446259468,0.03093791681,0.96218642646,-1.29416498212,-0.72422945402,-0.936963100296,1193.48635151,506.886829016,15764.4624111,-169.535612658,-94.8740584766,-122.742166139
1564084143.99,0.0727378977272,0.030773812629,0.961890635376,-1.30367978162,-0.733485897931,-0.94708358416,1191.73771636,504.198146114,15759.61617,-170.782051392,-96.0866526289,-124.067949525
1564084144.1,0.0724465298294,0.0304063923036,0.961673251526,-1.30460951338,-0.750213644016,-0.939398126507,1186.96394473,498.178331503,15756.054553,-170.903846253,-98.277987366,-123.061154572
1564084144.22,0.0726237518465,0.0302710265108,0.961819402936,-1.3184233712,-0.759925104042,-0.936298008513,1189.86755025,495.960498353,15758.4490977,-172.713461628,-99.5501886294,-122.655039115
1564084144.33,0.0726367672869,0.0301247832347,0.96209742358,-1.32398561424,-0.766375341729,-0.947248360333,1190.08079523,493.564448517,15763.0041879,-173.442115465,-100.395169766,-124.089535204
1564084144.44,0.0725019968082,0.0300419924112,0.962347642159,-1.29311377037,-0.760730173968,-0.939546425063,1187.8727157,492.208003666,15767.1037691,-169.397903918,-99.6556527898,-123.080581683
1564084144.56,0.0725027736898,0.0298698244201,0.962450768568,-1.29968025593,-0.779313645121,-0.960095599351,1187.88544413,489.387203299,15768.7933922,-170.258113527,-102.090087511,-125.772523515
1564084144.67,0.0724790588209,0.0296416310406,0.962152957337,-1.29642978759,-0.748710524884,-0.973246344759,1187.49689972,485.648482969,15763.914053,-169.832302174,-98.0810787598,-127.495271163
1564084144.78,0.0724333013763,0.029436256999,0.96259293504,-1.3072448241,-0.747121915144,-0.990425527077,1186.74720975,482.283634672,15771.1226477,-171.249071957,-97.8729708838,-129.745744047
1564084144.9,0.0725874321761,0.0291537641116,0.964307274349,-1.29560431115,-0.739585296148,-0.976879157576,1189.27248877,477.655271205,15799.2103829,-169.724164761,-96.8856737954,-127.971169642
1564084145.01,0.0726529077085,0.0290704189505,0.964287679727,-1.29428815485,-0.738145850503,-0.947130173116,1190.3452399,476.289744084,15798.8893446,-169.551748285,-96.6971064159,-124.074052678
1564084145.13,0.0730780466252,0.0291907208054,0.964367700816,-1.28928682028,-0.74906408988,-0.946310285575,1197.31071591,478.260769676,15800.2004102,-168.896573456,-98.1273957743,-123.96664741
1564084145.24,0.0729968044627,0.0289083674749,0.964122336985,-1.27257187871,-0.729119512953,-0.96160292114,1195.97964432,473.634692708,15796.1803692,-166.706916111,-95.5146561969,-125.969982669
1564084145.35,0.0727283740164,0.0288495619774,0.964023579849,-1.28424598855,-0.724909851734,-0.989106751163,1191.58167988,472.671223438,15794.5623322,-168.2362245,-94.9631905772,-129.572984402
1564084145.47,0.0727553413023,0.0286013245297,0.963885870301,-1.30696642786,-0.737151690988,-0.959661724902,1192.0235119,468.604101094,15792.306099,-171.21260205,-96.5668715195,-125.715685962
1564084145.58,0.072608713422,0.0273525202017,0.963664275459,-1.29382703698,-0.751222781431,-0.958352040961,1189.62116071,448.143690984,15788.6754891,-169.491341845,-98.4101843675,-125.544117366
1564084145.69,0.0722570217673,0.029085041619,0.963928707288,-1.30413898977,-0.772283709395,-0.938852714728,1183.85904464,476.529321886,15793.0079402,-170.84220766,-101.169165931,-122.989705629
1564084145.81,0.0725020227156,0.0289597405821,0.963800484997,-1.30120600683,-0.769864498761,-0.93122698524,1187.87314017,474.476389697,15790.9071462,-170.457986894,-100.852249338,-121.990735066
1564084145.92,0.072331898569,0.0290911102739,0.963855983372,-1.27795563515,-0.774557438198,-0.941921080609,1185.08582616,476.628750728,15791.8164316,-167.412188205,-101.467024404,-123.39166156
1564084146.03,0.0726426540246,0.0291116867465,0.963588549097,-1.25550358309,-0.786414671477,-0.947728972548,1190.17724354,476.965875655,15787.4347884,-164.470969384,-103.020321964,-124.152495404
1564084146.15,0.0726293651847,0.0289593071344,0.963958209813,-1.24751047669,-0.780292288299,-0.94379576995,1189.95951919,474.469288089,15793.4913096,-163.423872446,-102.218289767,-123.637245863
1564084146.26,0.0728859599162,0.0289930639209,0.963973521644,-1.2448968336,-0.778598937332,-0.921935276924,1194.16356727,475.02235928,15793.7421786,-163.081485201,-101.99646079,-120.773521277
1564084146.38,0.0729704107996,0.0287793044038,0.964060544479,-1.2326208907,-0.735853547415,-0.926688314117,1195.54721054,471.520123352,15795.1679608,-161.473336681,-96.3968147114,-121.396169149
1564084146.49,0.0731929009696,0.028660163026,0.963919138469,-1.25287025201,-0.705016284277,-0.932492765148,1199.19248949,469.568111017,15792.8511647,-164.126003013,-92.3571332403,-122.156552234
1564084146.6,0.0732954858727,0.0286750060984,0.963816287122,-1.24972063139,-0.70627038104,-0.953747305427,1200.87324054,469.811299915,15791.1660482,-163.713402712,-92.5214199162,-124.940897011
1564084146.72,0.0733145700979,0.0285418804885,0.963650478722,-1.25680963695,-0.670757846753,-0.949212269541,1201.18591648,467.630169924,15788.4494434,-164.642062441,-87.8692779246,-124.34680731
1564084146.83,0.0734782302756,0.0286173799397,0.963818633975,-1.27311340608,-0.689178245284,-0.958871195259,1203.86732484,468.867152932,15791.204499,-166.777856197,-90.2823501322,-125.612126579
1564084146.94,0.0734790400605,0.0285876731957,0.963969973703,-1.31755779066,-0.691252787167,-0.977487892527,1203.88059235,468.380437638,15793.6840491,-172.600070577,-90.5541151189,-128.050913921
1564084147.06,0.0734065266795,0.0286341793136,0.963593484145,-1.33771040854,-0.690066439748,-0.956838339915,1202.69253312,469.142393875,15787.5156442,-175.240063519,-90.398703607,-125.345822529
1564084147.17,0.0733900927615,0.0285295504448,0.963547612293,-1.33905387151,-0.694342238522,-0.954284276916,1202.42327981,467.428154487,15786.7640798,-175.416057167,-90.9588332463,-125.011240276
1564084147.29,0.0733020600479,0.0281912438378,0.963457499501,-1.34407978207,-0.715747709326,-0.961909284339,1200.98095182,461.885339038,15785.2876718,-176.074451451,-93.7629499217,-126.010116248
1564084147.4,0.0733693149806,0.0282285647665,0.963522882363,-1.32875577332,-0.711348510912,-0.962664920791,1202.08285664,462.496805135,15786.3589046,-174.067006305,-93.1866549295,-126.109104624
1564084147.51,0.073185703795,0.0282377395399,0.96328875819,-1.33099469981,-0.740213659821,-0.975558734055,1199.07457098,462.647124621,15782.5230142,-174.360305675,-96.9679894366,-127.798194161
1564084147.63,0.0733378365405,0.0283192390234,0.963663983933,-1.31392576418,-0.718100690786,-0.962735685077,1201.56711388,463.982412159,15788.6707128,-172.124275107,-94.0711904929,-126.118374745
1564084147.74,0.073303857574,0.028075205746,0.964221413665,-1.3061973099,-0.734076881249,-0.941271276875,1201.01040249,459.984170943,15797.8036415,-171.111847597,-96.1640714436,-123.306537271
1564084147.85,0.0732244483791,0.0281241304839,0.963893022298,-1.30840200639,-0.732424918315,-0.959357889645,1199.70936224,460.785753849,15792.4232773,-171.400662837,-95.9476642993,-125.675883544
1564084147.97,0.0729332535412,0.028119334623,0.963768368506,-1.30504272178,-0.731701510453,-0.949681642665,1194.93842602,460.707178464,15790.3809496,-170.960596553,-95.8528978693,-124.408295189
1564084148.08,0.0726955922496,0.0281638464732,0.963900320718,-1.30888959464,-0.735630596049,-0.944789814277,1191.04458342,461.436460618,15792.5428546,-171.464536898,-96.3676080824,-123.76746567
1564084148.2,0.0721887283371,0.0283015633884,0.963530796459,-1.2986113222,-0.726189673849,-0.962524573307,1182.74012508,463.692814556,15786.4885692,-170.118083208,-95.1308472742,-126.090719103
1564084148.31,0.0719766914409,0.0285231648621,0.963491193375,-1.29699446479,-0.693265362952,-0.963218680862,1179.26611257,467.3235331,15785.8397123,-169.906274887,-90.8177625468,-126.181647193
1564084148.42,0.0720055847968,0.0288446765009,0.963382308413,-1.30393623968,-0.694931193069,-0.967660171554,1179.73950131,472.59117979,15784.055741,-170.815647399,-91.0359862921,-126.763482474
1564084148.54,0.0719095185046,0.0287434119758,0.963601694759,-1.29873345541,-0.705590745518,-0.9815811773,1178.16555118,470.932061811,15787.6501669,-170.134082659,-92.4323876629,-128.587134226
1564084148.65,0.0718474729042,0.0289452426532,0.963506173721,-1.2963410259,-0.701443884707,-0.965865807661,1177.14899606,474.23885563,15786.0851502,-169.820674393,-91.8891488966,-126.528420804
1564084148.77,0.0719137021762,0.0290536480754,0.963713173536,-1.31021837369,-0.693894916083,-0.986836478804,1178.23409646,476.014970067,15789.4766352,-171.638606954,-90.9002340069,-129.275578723
1564084148.88,0.0721197928961,0.0293465254553,0.963557676495,-1.30667745235,-0.694734432109,-0.974412372908,1181.61068681,480.81347306,15786.9289717,-171.174746258,-91.0102106062,-127.648020851
1564084148.99,0.072354102669,0.0291218338473,0.963564213533,-1.31799443994,-0.700070149203,-0.942619990579,1185.44961813,477.132125754,15787.0360745,-172.657271632,-91.7091895456,-123.483218766
1564084149.11,0.0722475986521,0.0288951973376,0.963838651555,-1.32436293488,-0.706399012145,-0.949884709078,1183.70465632,473.418913179,15791.5324671,-173.491544469,-92.538270591,-124.434896889
1564084149.22,0.0720785028494,0.0288377088538,0.962840528587,-1.3308579391,-0.679270561313,-0.909858070232,1180.93419068,472.477021861,15775.1792204,-174.342390022,-88.9844435319,-119.1914072
1564084149.33,0.0719019025645,0.0287859692184,0.962894366353,-1.34510038947,-0.6785190777,-0.928795927331,1178.04077162,471.629319675,15776.0612983,-176.20815102,-88.8859991787,-121.67226648
1564084149.45,0.071889446683,0.0290567863591,0.963089304718,-1.34265141922,-0.687766406572,-0.95118351017,1177.83669445,476.066387707,15779.2551685,-175.887335918,-90.0973992609,-124.605039832
1564084149.56,0.0721712051397,0.0294714202232,0.962947366433,-1.3618213918,-0.693035567441,-0.933927754573,1182.45302501,482.859748937,15776.9296516,-178.398602326,-90.7876593348,-122.344535849
1564084149.67,0.0725224440007,0.0294783797634,0.96284403604,-1.33250948163,-0.692434300773,-0.930611314993,1188.20772251,482.973774043,15775.2366865,-174.558742094,-90.7088934013,-121.910082264
1564084149.79,0.0722037933507,0.029264916787,0.963214905874,-1.34276998385,-0.686549649322,-0.936786824715,1182.98695026,479.476396639,15781.3130178,-175.902867884,-89.9380040612,-122.719074038
1564084149.9,0.0720879062031,0.0293413547958,0.963280134036,-1.31841664959,-0.669803081336,-0.932421119343,1181.08825523,480.728756975,15782.381716,-172.712581096,-87.7442036551,-122.147166634
1564084150.01,0.0720568499578,0.0292392505662,0.96331442532,-1.29726200753,-0.657784605264,-0.918568320386,1180.57942971,479.055881277,15782.9435444,-169.941322986,-86.1697832896,-120.332449971
1564084150.13,0.072224211837,0.0298553645721,0.962881420288,-1.28280298235,-0.657654999699,-0.899230572317,1183.32148674,489.15029315,15775.84919,-168.047190688,-86.1528049606,-117.799204974
1564084150.24,0.0724480797158,0.0297751015524,0.962467301697,-1.29116390549,-0.659065072248,-0.922284614322,1186.98933806,487.835263835,15769.064271,-169.142471619,-86.3375244645,-120.819284476
1564084150.35,0.0725274904942,0.0296052085847,0.962973501215,-1.28876507219,-0.654227267314,-0.917079053653,1188.29040426,485.051737451,15777.3578439,-168.828224457,-85.7037720181,-120.137356029
1564084150.47,0.0724524758198,0.0295499611637,0.963062869843,-1.29194963367,-0.652163319208,-0.934531453631,1187.06136383,484.146563706,15778.8220595,-169.245402011,-85.4333948163,-122.423620426
1564084150.58,0.0725558610503,0.0295734806723,0.962972403171,-1.30779283825,-0.673206529272,-0.948711896054,1188.75522745,484.531907335,15777.3398536,-171.32086181,-88.1900553346,-124.281258383
1564084150.69,0.0725268374453,0.0296923044801,0.963257194104,-1.29075401244,-0.646343891612,-0.933993378205,1188.2797047,486.478716602,15782.0058682,-169.088775629,-84.6710498012,-122.353132545
1564084150.81,0.0722321615133,0.0296039334071,0.962903154381,-1.29068624478,-0.640488128405,-0.960441368628,1183.45173423,485.030844942,15776.2052814,-169.079898066,-83.9039448211,-125.81781929
1564084150.92,0.0724552344244,0.0294511572539,0.964781784256,-1.27841151343,-0.639798094191,-0.963633872987,1187.10656081,482.527760448,15806.9847532,-167.47190826,-83.813550339,-126.236037361
1564084151.04,0.072582757857,0.0289962759035,0.964641496455,-1.2643108201,-0.652154162634,-0.95505674523,1189.19590473,475.074984403,15804.6862779,-165.624717434,-85.4321953051,-125.112433625
1564084151.15,0.0725510445713,0.0277079764381,0.963953713997,-1.25620034878,-0.645717372325,-0.950390765364,1188.67631426,453.967485963,15793.4176501,-164.56224569,-84.5889757746,-124.501190263
1564084151.26,0.0723516041767,0.0275494834818,0.963652092597,-1.27638184062,-0.64908456639,-0.966802070507,1185.40868283,451.370737366,15788.4758851,-167.206021121,-85.0300781971,-126.651071236
1564084151.38,0.0725139046965,0.0281392616961,0.963624773963,-1.27393449625,-0.660511987614,-0.970885222235,1188.06781455,461.03366363,15788.0282966,-166.885419009,-86.5270703774,-127.185964113
1564084151.49,0.0723914204768,0.028035296464,0.963575773129,-1.27325860388,-0.663926437707,-0.944789066423,1186.06103309,459.330297267,15787.2254669,-166.796877108,-86.9743633397,-123.767367701
1564084151.6,0.0722323565542,0.0281370402551,0.964068781753,-1.27188694196,-0.669289519127,-0.970920846804,1183.45492978,460.99726754,15795.3029202,-166.617189397,-87.6769270057,-127.190630931
1564084151.72,0.0724554099612,0.0281309534171,0.963926552016,-1.25996542334,-0.661139193169,-0.980698991131,1187.10943681,460.897540786,15792.9726282,-165.055470458,-86.6092343051,-128.471567838
1564084151.83,0.0722899470901,0.0282719596379,0.963920615564,-1.23931239246,-0.661437487592,-0.974232145453,1184.39849312,463.207786707,15792.8753654,-162.349923412,-86.6483108746,-127.624411054
1564084151.94,0.0722875148811,0.0281791386741,0.963988514945,-1.25049565703,-0.655599082345,-0.96459519045,1184.35864381,461.687008037,15793.9878289,-163.814931071,-85.8834797871,-126.361969949
1564084152.06,0.0722609118305,0.0280711857442,0.963414858763,-1.26132395392,-0.677062074874,-0.992563152321,1183.92277943,459.918307233,15784.589046,-165.233437964,-88.6951318084,-130.025772954
1564084152.17,0.0723346253349,0.0268265671698,0.963191536949,-1.25503888677,-0.669661210898,-0.965825921058,1185.13050149,439.52647651,15780.9301414,-164.410094167,-87.7256186276,-126.523195659
1564084152.28,0.0725718659265,0.0267806292028,0.963161445754,-1.25167240268,-0.676740891335,-0.961609741166,1189.01745134,438.773828859,15780.4371272,-163.969084751,-88.6530567648,-125.970876093
1564084152.4,0.0723947574588,0.0268857694075,0.963695887116,-1.25474943722,-0.680822527392,-0.945601438805,1186.11570621,440.496445973,15789.1934145,-164.372176275,-89.1877510883,-123.873788483
1564084152.51,0.0724795004629,0.0271268799668,0.963590946842,-1.2575187683,-0.677625770836,-0.951041294925,1187.50413558,444.446801376,15787.4740731,-164.734958648,-88.7689759795,-124.586409635
1564084152.63,0.0723604566666,0.0273682935326,0.963642984971,-1.26993483041,-0.671695254821,-0.937616554745,1185.55372203,448.402121238,15788.3266658,-166.361462783,-87.9920783816,-122.827768672
1564084152.74,0.072155661,0.0276343938668,0.963811889599,-1.27423905729,-0.677808172087,-0.947671693164,1182.19834982,452.761909114,15791.0939992,-166.925316505,-88.7928705434,-124.144991804
1564084152.85,0.0722398995875,0.0279227122927,0.964134802201,-1.26360904469,-0.711554072436,-0.955194600183,1183.57851484,457.485718203,15796.3845993,-165.532784854,-93.2135834891,-125.130492624
1564084152.97,0.0722180580662,0.0279380582509,0.964181282919,-1.2700725677,-0.715207825497,-0.985629338638,1183.22066336,457.737146383,15797.1461393,-166.379506369,-93.6922251402,-129.117443362
1564084153.08,0.0721495725721,0.0280006977383,0.964467256189,-1.26520271551,-0.700938951345,-0.98935648111,1182.09859702,458.763431744,15801.8315254,-165.741555732,-91.8230026261,-129.605699025
1564084153.19,0.0723809043774,0.0277885185895,0.964334007133,-1.26463664243,-0.715577880638,-0.976680374984,1185.88873732,455.28708857,15799.6483729,-165.667400159,-93.7407023635,-127.945129123
1564084153.31,0.0725158608147,0.0277928698555,0.963847872045,-1.27328748201,-0.714249100207,-0.970615390921,1188.09986359,455.358379713,15791.6835356,-166.800660143,-93.5666321272,-127.150616211
1564084153.42,0.0727105637957,0.02804092662,0.96394745984,-1.26198926816,-0.694732587133,-0.964393546485,1191.28987723,459.422541742,15793.315182,-165.320594129,-91.0099689145,-126.33555459
1564084153.53,0.0726416558536,0.028264177708,0.963890604481,-1.26785141004,-0.695488336054,-0.968717550615,1190.16088951,463.080287567,15792.3836638,-166.088534716,-91.108972023,-126.901999131
1564084153.65,0.0723843262058,0.0282697911872,0.963839434658,-1.24793649805,-0.699985303975,-0.954288543645,1185.94480056,463.172258811,15791.5452974,-163.479681244,-91.6980748207,-125.011799218
1564084153.76,0.0722259717102,0.0298373433185,0.963573655255,-1.2460436116,-0.736093643806,-0.935195567143,1183.3503205,488.85503293,15787.1907677,-163.23171312,-96.4282673386,-122.510619296
1564084153.87,0.0719613823517,0.0300274371116,0.963603008479,-1.24739344891,-0.727369775609,-0.941676010429,1179.01528845,491.969529637,15787.6716909,-163.408541808,-95.2854406048,-123.359557366
1564084153.99,0.0721382909915,0.029588169963,0.963189973256,-1.23715792082,-0.723335088124,-0.926897722363,1181.9137596,484.772576673,15780.9045218,-162.067687627,-94.7568965443,-121.42360163
1564084154.1,0.0722975087673,0.0291928295292,0.963550663431,-1.22031235774,-0.721230586946,-0.889169782188,1184.52238364,478.295319006,15786.8140696,-159.860918864,-94.4812068899,-116.481241467
1564084154.21,0.0726361172656,0.0290567497012,0.963631143963,-1.21889180899,-0.730786917564,-0.891092498626,1190.07014528,476.065787105,15788.1326627,-159.674826978,-95.7330862009,-116.73311732
1564084154.33,0.0726723102266,0.0289342778561,0.963459435816,-1.20692629221,-0.729463950998,-0.904273325099,1190.66313075,474.059208395,15785.3193964,-158.10734428,-95.5597775808,-118.459805588
1564084154.44,0.0727048838914,0.028897295383,0.963866421922,-1.22211152559,-0.712242746738,-0.909265839917,1191.19681768,473.453287555,15791.9874568,-160.096609852,-93.3037998227,-119.113825029
1564084154.56,0.0726365439398,0.0288640111572,0.96376884223,-1.23806831196,-0.733384884278,-0.91604917959,1190.07713591,472.9079588,15790.3887111,-162.186948867,-96.0734198404,-120.002442526
1564084154.67,0.0727459364208,0.028687570979,0.963900747069,-1.23639888534,-0.721878456919,-0.915283956287,1191.86942232,470.01716292,15792.54984,-161.96825398,-94.5660778564,-119.902198274
1564084154.79,0.0728688037162,0.0285043607561,0.963506766113,-1.23794983651,-0.706179160845,-0.955816629361,1193.88248009,467.015446628,15786.094856,-162.171428582,-92.5094700708,-125.211978446
1564084154.9,0.0728328999071,0.0286324403055,0.963323081689,-1.23018538721,-0.708843687509,-0.931990691616,1193.29423208,469.113901965,15783.0853704,-161.154285724,-92.8585230637,-122.090780602
1564084155.01,0.0728494146039,0.0287965400249,0.96347514852,-1.21556379505,-0.707424967613,-0.934211469782,1193.56480887,471.802511768,15785.5768333,-159.238857152,-92.6726707573,-122.381702541
1564084155.13,0.0727910356435,0.0288221594599,0.963489938355,-1.2527860415,-0.694697738027,-0.946133834254,1192.60832798,472.222260592,15785.81915,-164.114971436,-91.0054036816,-123.943532287
1564084155.24,0.0726164242666,0.0287231466389,0.96323469452,-1.25880514727,-0.715304300102,-0.948467015714,1189.74749518,470.600034532,15781.637235,-164.903474293,-93.7048633134,-124.249179059
1564084155.35,0.0726545865275,0.0289514179125,0.962956146943,-1.28483302949,-0.704842572382,-0.958200466815,1190.37274567,474.340031079,15777.0735115,-168.313126863,-92.3343769821,-125.524261153
1564084155.47,0.0725912763122,0.0288150651838,0.963193735374,-1.28612071891,-0.704587322778,-0.947113244561,1189.3354711,472.106027971,15780.9661604,-168.481814177,-92.3009392839,-124.071835037
1564084155.58,0.072607539306,0.0287900039779,0.963505221211,-1.27506589893,-0.731838514164,-0.948585126212,1189.60192399,471.695425174,15786.0695443,-167.033632759,-95.8708453555,-124.264651534
1564084155.7,0.0727198322504,0.0287430348301,0.963565831903,-1.27504022506,-0.740334052061,-0.927772415117,1191.44173159,470.925882657,15787.0625899,-167.030269483,-96.9837608199,-121.53818638
1564084155.81,0.0724302709004,0.0285786922846,0.9635715534,-1.26509345447,-0.745689959832,-0.924308150705,1186.69755843,468.233294391,15787.1563309,-165.727242535,-97.6853847379,-121.084367742
1564084155.92,0.0726579469353,0.0283819558686,0.96311283556,-1.24240090291,-0.729899589803,-0.919663595176,1190.42780259,465.009964952,15779.6406978,-162.754518282,-95.6168462641,-120.475930968
1564084156.04,0.0726431288043,0.0281560649693,0.962773231691,-1.24945852255,-0.734772226242,-0.936094182223,1190.18502233,461.308968457,15774.076628,-163.679066453,-96.2551616377,-122.628337871
1564084156.15,0.0728251049864,0.0280260053474,0.962980283522,-1.25123022754,-0.746027828046,-0.925690870871,1193.1665201,459.178071611,15777.4689652,-163.911159808,-97.729645474,-121.265504084
1564084156.26,0.0730865398002,0.0277380532501,0.962458622358,-1.26427514372,-0.739363976539,-0.928541631112,1197.44986809,454.46026445,15768.9220687,-165.620043827,-96.8566809266,-121.638953676
1564084156.38,0.0731021045702,0.0276497948001,0.961989127309,-1.25158808736,-0.747870326976,-0.94179433823,1197.70488128,453.014238005,15761.2298618,-163.958039445,-97.9710128339,-123.375058308
1564084156.49,0.0731161128632,0.0276680184451,0.961981620828,-1.26917737023,-0.742548943134,-0.922424064713,1197.93439315,453.312814204,15761.1068757,-166.2622355,-97.2739115505,-120.837552477
1564084156.6,0.0726892672019,0.0276355916006,0.962194591558,-1.26516039657,-0.734706262561,-0.961479368165,1190.94095384,452.781532784,15764.5961881,-165.73601195,-96.2465203955,-125.95379723
1564084156.72,0.0726957311067,0.027484337128,0.962288608965,-1.26154512027,-0.711617315694,-0.95311769089,1191.04685845,450.303379506,15766.1365693,-165.262410755,-93.2218683559,-124.858417507
1564084156.83,0.0726283064335,0.0276167627902,0.961836115256,-1.26516160061,-0.695417416186,-0.962386074473,1189.94217261,452.473041555,15758.7229123,-165.73616968,-91.0996815203,-126.072575756
1564084156.94,0.0725432101652,0.0279312583862,0.96194156623,-1.26917979169,-0.689234453193,-0.989811589163,1188.54795535,457.6257374,15760.4506211,-166.262552712,-90.2897133683,-129.66531818
1564084157.06,0.0729060766486,0.0278236794226,0.962500339295,-1.26592593466,-0.685196504057,-0.977089972232,1194.49315981,455.86316366,15769.605559,-165.83629744,-89.7607420315,-127.998786362
1564084157.17,0.0727443752338,0.0278489286678,0.962661438178,-1.29047837936,-0.693012731514,-0.993121433024,1191.84384383,456.276847294,15772.2450031,-169.052667696,-90.7846678283,-130.098907726
1564084157.29,0.0727697423979,0.0277739967385,0.962611114672,-1.30341527425,-0.690123672103,-0.986939060714,1192.25945945,455.049162564,15771.4205028,-170.747400927,-90.4062010455,-129.289016953
1564084157.4,0.0724263619081,0.0272182767522,0.96210195633,-1.31963863232,-0.731798327793,-0.995878742429,1186.6335135,445.944246308,15763.0784525,-172.872660834,-95.8655809409,-130.460115258
1564084157.51,0.0725323585298,0.0272064100145,0.96210758101,-1.31057553245,-0.680755899594,-0.990183997957,1188.37016215,445.749821677,15763.1706073,-171.685394751,-89.1790228468,-129.714103732
1564084157.63,0.0712605679893,0.027903737763,0.962307955721,-1.2047088189,-0.79893985162,-0.994219033276,1167.53314594,457.174839509,15766.4535465,-157.816855276,-104.661120562,-130.242693359
1564084157.74,0.0743884174404,0.0177403171117,0.961682628899,-1.95446694464,-0.51217563745,-0.929911633765,1218.77983134,290.657355558,15756.2081919,-256.035169748,-67.0950085059,-121.818424023
1564084157.85,0.0744446928838,0.018383277588,0.961217491009,-1.12924925781,-0.576225249277,-1.02241665359,1219.70184821,301.191620003,15748.5873727,-147.931652773,-75.4855076553,-133.936581621
1564084157.97,0.073372293908,0.0190107701417,0.959724648158,-0.831591507602,-0.909442419006,-1.00872460656,1202.13166339,311.472458002,15724.1286354,-108.938487496,-119.13695689,-132.142923459
1564084158.08,0.0747508848297,0.0193313728151,0.957843980217,-1.01026441791,-0.48262031451,-0.855180390175,1224.71849705,316.725212202,15693.3157719,-132.344638746,-63.2232612008,-112.028631113
1564084158.2,0.0748441557217,0.0201570245961,0.957665050946,-0.918398281463,-0.57252622199,-0.881876091615,1226.24664734,330.252690982,15690.3841947,-120.310174872,-75.0009350807,-115.525768002
1564084158.31,0.074806029212,0.020460658074,0.955697373976,-1.15327601057,-0.446571309715,-1.03338313894,1225.62198261,335.227421884,15658.1457752,-151.079157385,-58.5008415727,-135.373191201
1564084158.42,0.0763830434783,0.0189517016416,0.953950878766,-2.0990171118,-1.25229585813,-1.24531200062,1251.45978435,310.504679695,15629.5311977,-274.971241646,-164.050757415,-163.135872081
1564084158.53,0.0744088016305,0.0184725471024,0.954063603389,-1.94942074413,-1.30950902041,-1.26963576239,1219.11380591,302.654211726,15631.3780779,-255.374117481,-171.545681674,-166.322284873
1564084158.65,0.0656739761549,0.0175041986422,0.942763688363,-0.32089088346,-0.0846649885991,-1.58923707165,1076.00242532,286.788790553,15446.2402701,-42.0367057333,-11.0911135065,-208.190056386
1564084158.76,0.0680421254145,0.0204656928404,0.945948257027,-2.00101553557,0.442122120948,-1.1868019141,1114.80218279,335.309911498,15498.4162431,-262.13303516,57.9179978442,-155.471050747
1564084158.87,0.084870725373,0.0261095532439,0.964683509449,8.14641426226,0.362795405036,-2.35972477613,1390.52196451,427.778920348,15805.3746188,1067.18026836,47.5261980598,-309.123945673
1564084158.98,0.0849529887732,0.033630433857,0.956984689754,6.66307054596,0.183004414151,-1.83291260386,1391.86976806,551.001028313,15679.2371569,872.86224152,23.9735782538,-240.111551105
1564084159.09,0.0815358148959,0.0413513748463,0.955866298904,6.82195433106,-0.0200288516916,-1.88168241217,1335.88279125,677.500925482,15660.9134412,893.676017368,-2.6237795716,-246.500395995
1564084159.2,0.0773128974688,0.0490570576742,0.953932012763,6.587850501,-0.324132836751,-1.83168210989,1266.69451213,803.750832934,15629.2220971,863.008415632,-42.4614016144,-239.950356395
1564084159.32,0.0750259436594,0.0518417815943,0.953070061487,5.54127919136,-0.301643217198,-1.41110931875,1229.22506092,849.37574964,15615.0998874,725.907574068,-39.515261453,-184.855320756
1564084159.43,0.074090732106,0.0578148299973,0.951195672526,6.02226577604,-0.859265155021,-1.39289915023,1213.90255482,947.238174676,15584.3898987,788.916816662,-112.563735308,-182.46978868
1564084159.54,0.0726386901454,0.0639229954351,0.952658136523,5.19713843508,-0.832117265473,-1.33299854818,1190.11229934,1047.31435721,15608.3509088,680.825134995,-109.007361777,-174.622809812
1564084159.66,0.0716492351933,0.0694691724541,0.954096424433,4.27131772134,-0.747378821368,-1.27374449489,1173.90106941,1138.18292149,15631.9158179,559.542621496,-97.9066255992,-166.860528831
1564084159.78,0.0706122413615,0.0744363177087,0.95458521949,3.92357526219,-0.774931015567,-1.26621737365,1156.91096247,1219.56462934,15639.9242361,513.988359346,-101.515963039,-165.874475948
1564084159.89,0.0693127359754,0.0789067484378,0.954585681916,3.71442384284,-0.772247074316,-1.23272540728,1135.61986622,1292.80816641,15639.9318125,486.589523412,-101.164366735,-161.487028353
1564084160.01,0.0683873217528,0.0835404876565,0.954073402787,3.24298145855,-0.768304809632,-1.2041093551,1120.4578796,1368.72734976,15631.5386313,424.83057107,-100.647930062,-157.738325518
1564084160.12,0.067383550515,0.0874667123284,0.955028367196,2.97593522109,-0.711321656913,-1.19133200737,1104.01209164,1433.05461479,15647.1847681,389.847513963,-93.1831370557,-156.064492966
1564084160.23,0.067114922026,0.0913665254705,0.954935686726,2.37834169899,-0.647823079008,-1.15387819595,1099.61088247,1496.94915331,15645.6662913,311.562762567,-84.8648233501,-151.158043669
1564084160.35,0.0651153438859,0.093924208861,0.955072000866,1.8756220329,-0.665483519199,-1.13085678857,1066.84979423,1538.85423798,15647.8996622,245.70648631,-87.1783410151,-148.142239302
1564084160.46,0.0647073251223,0.0964946785999,0.955341167967,1.50180028763,-0.686721426821,-1.13380164406,1060.1648148,1580.96881418,15652.309696,196.735837679,-89.9605069136,-148.528015372
1564084160.57,0.0642424519851,0.0980756794899,0.955266035545,0.969940869553,-0.669194322307,-1.09828407508,1052.54833332,1606.87193276,15651.0787264,127.062253911,-87.6644562222,-143.875213835
1564084160.69,0.0652644958491,0.0997427209159,0.956028494491,0.67142006504,-0.696931378626,-1.09685261413,1069.29349999,1634.18473949,15663.5708537,87.9560285203,-91.2980106,-143.687692451
1564084160.8,0.0648903900142,0.101389542574,0.954737168479,0.307331493651,-0.698230607176,-1.08869407028,1063.16414999,1661.16626554,15642.4137684,40.2604256682,-91.46820954,-142.618923206
1564084160.91,0.0648222494503,0.103066994567,0.955723412569,-0.110424556478,-0.728407546458,-1.07295443424,1062.04773499,1688.64963898,15658.5723915,-14.4656168986,-95.421388586,-140.557030886
1564084161.03,0.0649074073177,0.103746623235,0.955927438499,-0.252817215334,-0.763200379598,-1.03359792212,1063.44296149,1699.78467509,15661.9151524,-33.1190552087,-99.9792497274,-135.401327797
1564084161.14,0.0649352212735,0.104870984349,0.956184304024,-0.295474425098,-0.751002479043,-1.02718469479,1063.89866534,1718.20620758,15666.1236371,-38.7071496879,-98.3813247547,-134.561195017
1564084161.26,0.0631536132086,0.105541112477,0.956122514247,-0.428522402436,-0.711016734956,-1.02370286653,1034.70879881,1729.18558682,15665.1112734,-56.1364347191,-93.1431922792,-134.105075516
1564084161.37,0.0626243847003,0.105973329354,0.956042489385,-0.429944971352,-0.736861626346,-1.02820280889,1026.03791893,1736.26702814,15663.8001461,-56.3227912472,-96.5288730513,-134.694567964
1564084161.48,0.0623678056052,0.106386738606,0.956165779509,-0.465576428416,-0.747908288139,-0.995611535631,1021.83412704,1743.04032532,15665.8201315,-60.9905121224,-97.9759857461,-130.425111168
1564084161.6,0.0626739937947,0.107491228808,0.956154670308,-0.446499701605,-0.762430436424,-0.994523664511,1026.85071433,1761.13629279,15665.6381183,-58.4914609102,-99.8783871715,-130.282600051
1564084161.71,0.0628519069152,0.108460855927,0.95695033609,-0.617880265795,-0.753362965301,-0.990491145388,1029.7656429,1777.02266351,15678.6743065,-80.9423148192,-98.6905484544,-129.754340046
1564084161.82,0.0627434740362,0.109504418772,0.957471122793,-0.668305979674,-0.781843462664,-0.976174855277,1027.98907861,1794.12039716,15687.2068758,-87.5480833373,-102.421493609,-127.878906041
1564084161.94,0.0627679547576,0.109784445645,0.957939830826,-0.769414313004,-0.758620948458,-0.970923781963,1028.39017075,1798.70835744,15694.8861883,-100.793275004,-99.379344248,-127.191015437
1564084162.05,0.0614472139693,0.107155610455,0.964147800869,-1.26957211834,-0.358331372696,-1.02039628926,1006.75115367,1755.6375217,15796.5975694,-166.313947503,-46.9414098232,-133.671913893
1564084162.16,0.0616013206974,0.109574815035,0.959041614532,-0.105210326358,-0.917154723976,-1.09545589698,1009.27603831,1795.27376953,15712.9378125,-13.7825527529,-120.147268841,-143.504722504
1564084162.28,0.0612761495652,0.109676903844,0.959206789016,-0.285528988378,-0.969714060739,-1.11339122331,1003.94843448,1796.94639258,15715.6440312,-37.4042974776,-127.032541957,-145.854250254
1564084162.39,0.0612764642961,0.109671127522,0.959599586677,-0.405067692594,-0.894880059245,-1.08907500174,1003.95359103,1796.85175332,15722.0796281,-53.0638677298,-117.229287761,-142.668825228
1564084162.5,0.0614476459915,0.10817667102,0.961173807697,-0.638606724861,-0.616079076222,-1.06948047867,1006.75823193,1772.36657799,15747.8716653,-83.6574809568,-80.706358985,-140.101942705
1564084162.62,0.0614308110799,0.107588496105,0.96097927849,-1.01749414398,-0.584242160966,-1.07856296515,1006.48240873,1762.72992019,15744.6844988,-133.291732861,-76.5357230865,-141.291748435
1564084162.73,0.0614156596594,0.107571833995,0.961243655328,-1.04551572195,-0.59757367006,-1.07223338619,1006.23416786,1762.45692817,15749.0160489,-136.962559575,-78.2821507779,-140.462573591
1564084162.85,0.0615485077559,0.106458205283,0.96145718042,-1.08294888258,-0.612625463359,-1.05126958956,1008.41075107,1744.21123535,15752.514444,-141.866303618,-80.2539357001,-137.716316232
1564084162.96,0.0601788132304,0.106163947254,0.961014587378,-1.03343262027,-0.694874367405,-1.03087545503,985.969675966,1739.39011182,15745.2629996,-135.379673256,-91.0285421301,-135.044684609
1564084163.07,0.0607283147198,0.105117865029,0.960909222391,-1.41711225901,-0.649814411581,-1.02702455075,994.97270837,1722.25110064,15743.5366996,-185.64170593,-85.1256879171,-134.540216148
1564084163.19,0.0604416160603,0.103907836339,0.960716737651,-1.36089721631,-0.662695565842,-1.04874957659,990.275437533,1702.42599057,15740.3830297,-178.277535337,-86.8131191254,-137.386194533
1564084163.3,0.0606474544543,0.102623498017,0.960738813886,-1.38816627331,-0.73459394819,-1.04234790137,993.647893779,1681.38339152,15740.7447267,-181.849781803,-96.2318072128,-136.54757508
1564084163.41,0.0602955996339,0.101662906028,0.960807510623,-1.33102903529,-0.702355927416,-1.02742608834,987.883104401,1665.64505236,15741.870254,-174.364803623,-92.0086264915,-134.592817572
1564084163.53,0.060149828733,0.1008227873,0.960454298623,-1.26891849817,-0.748150869026,-1.00712622759,985.494793961,1651.88054713,15736.0832286,-166.228323261,-98.0077638424,-131.933535815
1564084163.64,0.0589932442972,0.100432891383,0.960258478136,-1.24966023614,-0.748908301207,-1.01175711628,966.545314565,1645.49249241,15732.8749058,-163.705490935,-98.1069874582,-132.540182233
1564084163.75,0.05780583393,0.0982265163069,0.960643763135,-1.37507589192,-0.799208310781,-0.996077587863,947.090783109,1609.34324317,15739.1874152,-180.134941841,-104.696288712,-130.48616401
1564084163.87,0.057835797412,0.0979497631138,0.959891886821,-1.53527822639,-0.912417250695,-1.00792021076,947.581704798,1604.80891886,15726.8686737,-201.121447657,-119.526659841,-132.037547609
1564084163.98,0.0582778036083,0.0973588883649,0.959727893451,-1.68175040375,-0.932625907305,-0.994914449222,954.823534318,1595.12802697,15724.1818063,-220.309302891,-122.173993857,-130.333792848
1564084164.1,0.0587976794974,0.0964120620284,0.959653541606,-1.84639979086,-1.00043201886,-0.996186363078,963.341180886,1579.61522427,15722.9636257,-241.878372602,-131.056594471,-130.500413563
1564084164.21,0.0605350990477,0.0949007386381,0.959879593696,-2.30145446826,-0.930923168123,-0.972903604633,991.807062798,1554.85370185,15726.6672631,-301.490535342,-121.950935024,-127.450372207
1564084164.32,0.0599259250804,0.0902202350867,0.960253939014,-2.80413344891,-0.909586576502,-0.959582709819,981.826356518,1478.16833166,15732.8005368,-367.341481808,-119.155841522,-125.705334986
1564084164.44,0.0581569653849,0.0846650084531,0.963081084175,-3.87791857731,0.237860630767,0.27149006498,952.843720866,1387.1514985,15779.1204831,-508.007333627,31.1597426304,35.5651985124
1564084164.55,0.0577367766589,0.0816672576078,0.96318410857,-3.45653893332,0.162929529522,0.142050982146,945.959348779,1338.03634865,15780.8084348,-452.806600264,21.3437683674,18.6086786611
1564084164.66,0.0579445443055,0.078529828722,0.963643041463,-3.25897664304,0.0779342864935,0.0209756549238,949.363413901,1286.63271378,15788.3275913,-426.925940238,10.2093915306,2.74781079502
1564084164.78,0.0568131758125,0.0756817286623,0.963030690442,-2.98498737568,0.0594538349434,-0.0566944296526,930.827072511,1239.9694424,15778.2948322,-391.033346214,7.78845237758,-7.42697028448
1564084164.89,0.0566006082312,0.0735090636086,0.962284262022,-3.25977108086,-0.040384678322,-0.145681475237,927.34436526,1204.37249816,15766.065349,-427.030011593,-5.29039286018,-19.084273256
1564084165.0,0.0557745317831,0.0706259306852,0.961685718633,-3.08799244606,-0.11955231736,-0.239510274278,913.809928734,1157.13524835,15756.2588141,-404.527010433,-15.6613535742,-31.3758459304
1564084165.12,0.0557146567298,0.0687879469917,0.961049373332,-2.62575808695,-0.277826093258,-0.323192834637,912.828935861,1127.02172351,15745.8329327,-343.97430939,-36.3952182167,-42.3382613374
1564084165.23,0.0552945582443,0.0643017304175,0.960989357874,-3.17157922482,-0.237066384695,-0.406904085524,905.946042275,1053.51955116,15744.8496394,-415.476878451,-31.0556963951,-53.3044352037
1564084165.35,0.0547943992949,0.0587504636258,0.957175578336,-3.2307571802,-0.208779593554,-0.667740394529,897.751438047,962.567596045,15682.3646755,-423.229190606,-27.3501267556,-87.4739916833
1564084165.46,0.0546860531154,0.0513861594507,0.964900403315,-3.40157459195,0.182327373435,-0.733790782557,895.976294242,841.91083644,15808.9282079,-445.606271545,23.88488592,-96.126592515
1564084165.57,0.0538805337413,0.0483959810056,0.964943566109,-3.11714232359,0.203025933801,-0.781785750103,882.778664818,792.919752796,15809.6353871,-408.345644391,26.596397328,-102.413933263
1564084165.69,0.0527649413047,0.0450700547801,0.96476268606,-2.91611511414,0.156769141948,-0.789866717077,864.500798336,738.427777516,15806.6718484,-382.011079952,20.5367575952,-103.472539937
1564084165.8,0.0518341502992,0.0421255493021,0.964966104954,-2.771831847,0.0815502430204,-0.845994549186,849.250718503,690.184999765,15810.0046636,-363.109971957,10.6830818357,-110.825285943
1564084165.91,0.0498245633943,0.0392313537468,0.964660900709,-2.5946486623,-0.0159177583809,-0.862158453046,816.325646653,642.766499788,15805.0041972,-339.898974761,-2.08522634789,-112.942757349
1564084166.03,0.0494807789299,0.0368951324347,0.96441063095,-2.45579448309,-0.0570740741458,-0.862965508505,810.693081987,604.489849809,15800.9037775,-321.709077285,-7.4767037131,-113.048481614
1564084166.14,0.0489028182244,0.0346948770037,0.963404138168,-2.34227610348,-0.158236895739,-0.856058270632,801.223773789,568.440864829,15784.4133997,-306.838169556,-20.7290333418,-112.143633453
1564084166.25,0.0482849973395,0.0328855455533,0.963718997789,-2.24468971451,-0.22867274815,-0.85289519166,791.10139641,538.796778346,15789.5720598,-294.054352601,-29.9561300076,-111.729270107
1564084166.37,0.0480951694805,0.031257147248,0.963611746447,-2.1438848652,-0.284431427533,-0.867605672494,787.991256769,512.117100511,15787.8148538,-280.848917341,-37.2605170069,-113.656343097
1564084166.48,0.0464106525325,0.0281802606482,0.96400350149,-2.06537424127,-0.336904315314,-0.869394723565,760.392131092,461.70539046,15794.2333684,-270.564025607,-44.1344653062,-113.890708787
1564084166.6,0.0463594310292,0.0284384064584,0.963526002904,-1.99318796218,-0.403213883783,-0.861081205407,759.552917983,465.934851414,15786.4100316,-261.107623046,-52.8210187755,-112.801637908
1564084166.71,0.0478758316763,0.0270594095625,0.963169496363,-1.91829664688,-0.436938296931,-0.836805145935,784.397626184,443.341366273,15780.5690284,-251.296860741,-57.238916898,-109.621474118
1564084166.82,0.0470433266337,0.0257450701688,0.963117195164,-1.86081812723,-0.46423683365,-0.85388799012,770.757863566,421.807229645,15779.7121256,-243.767174667,-60.8150252082,-111.859326706
1564084166.94,0.0484669236578,0.0246598209644,0.962508600648,-1.814430971,-0.489568875476,-0.882239649124,794.082077209,404.026506681,15769.740913,-237.6904572,-64.1335226874,-115.573394035
1564084167.05,0.0481368328545,0.0234389560555,0.962668873396,-1.77115581283,-0.525344812356,-0.888672172761,788.673869488,384.023856013,15772.3668217,-232.02141148,-68.8201704186,-116.416054632
1564084167.16,0.0479129933191,0.0224378338874,0.962666634494,-1.71465091857,-0.5842607128,-0.89140800892,785.00648254,367.621470411,15772.3301395,-224.619270332,-76.5381533768,-116.774449168
1564084167.28,0.0473209127372,0.0216588942487,0.962884346044,-1.69127742976,-0.601407160604,-0.906084001921,775.305834286,354.85932337,15775.8971256,-221.557343299,-78.7843380391,-118.697004252
1564084167.39,0.0468856964634,0.0207381220113,0.963251184877,-1.65879090816,-0.62676262775,-0.898681708599,768.175250857,339.773391033,15781.907413,-217.301608969,-82.1059042352,-117.727303826
1564084167.5,0.0466404861921,0.0216184113727,0.96341044139,-1.6196293746,-0.630498578715,-0.91415704919,764.157725771,354.19605193,15784.5166717,-212.171448072,-82.5953138117,-119.754573444
1564084167.62,0.0464197969479,0.0194565702354,0.963749084751,-1.58209391805,-0.63615101092,-0.93419172595,760.541953194,318.776446737,15790.0650046,-207.254303265,-83.3357824305,-122.379116099
1564084167.73,0.0464164891281,0.0205382569619,0.963760895026,-1.55823567129,-0.64887178769,-0.928558812897,760.487757875,336.498802063,15790.2585041,-204.128872939,-85.0022041875,-121.64120449
1564084167.84,0.0460473011528,0.0199736890782,0.963771524273,-1.54210676065,-0.648870105105,-0.918909038478,754.438982087,327.248921857,15790.4326537,-202.015985645,-85.0019837687,-120.377084041
1564084167.96,0.0457882741625,0.0197585467329,0.963073082783,-1.50545333649,-0.700776987724,-0.937705157531,750.195083879,323.724029671,15778.9893883,-197.21438708,-91.8017853918,-122.839375637
1564084168.07,0.0456772201838,0.0198090592471,0.963030422942,-1.51521334635,-0.69253135002,-0.92561403109,748.375575491,324.551626704,15778.2904495,-198.492948372,-90.7216068527,-121.255438073
1564084168.19,0.0452354747279,0.0193906533224,0.963162927523,-1.50796682088,-0.672896535629,-0.923128963859,741.138017942,317.696464034,15780.4614045,-197.543653535,-88.1494461674,-120.929894266
1564084168.3,0.0452773569426,0.0189896739276,0.963404251958,-1.48923120749,-0.693393141608,-0.931579426252,741.824216147,311.12681763,15784.4152641,-195.089288181,-90.8345015506,-122.036904839
1564084168.41,0.0450709103108,0.0183114096599,0.963743514262,-1.4632088501,-0.706496575539,-0.931551254619,738.441794533,300.014135867,15789.9737377,-191.680359363,-92.5510513956,-122.033214355
1564084168.53,0.0450560067798,0.0177742140064,0.963243186274,-1.44818567502,-0.697678979054,-0.930762541371,738.197615079,291.212722281,15781.7763639,-189.712323427,-91.395946256,-121.92989292
1564084168.64,0.0449693514143,0.0174372222932,0.963720625459,-1.42550451209,-0.678292760538,-0.914022165096,736.777853572,285.691450053,15789.5987275,-186.741091084,-88.8563516304,-119.736903628
1564084168.76,0.0448181193978,0.0167188906889,0.963832937913,-1.41654184714,-0.696723026469,-0.906589414236,734.300068214,273.922305047,15791.4388548,-185.566981976,-91.2707164674,-118.763213265
1564084168.87,0.0451458777706,0.016755985995,0.963494565997,-1.3939716319,-0.682775914661,-0.895319785789,739.670061393,274.530074543,15785.8949693,-182.610283778,-89.4436448206,-117.286891938
1564084168.98,0.044903750931,0.016374332708,0.96336092971,-1.38358210229,-0.687780765943,-0.918001547668,735.703055254,268.277067088,15783.7054724,-181.2492554,-90.0992803386,-120.258202745
1564084169.1,0.0450520477129,0.0159820166247,0.963533625801,-1.3582009913,-0.693048490876,-0.920094522672,738.132749728,261.849360379,15786.5349251,-177.92432986,-90.7893523047,-120.53238247
1564084169.21,0.0450878585666,0.0160927993373,0.963811122596,-1.33077783874,-0.697789443315,-0.923504917733,738.719474755,263.664424342,15791.0814326,-174.331896874,-91.4104170742,-120.979144223
1564084169.32,0.0450468461475,0.016314574091,0.963645830649,-1.32747104723,-0.693659353945,-0.912070456494,738.04752728,267.297981907,15788.3732894,-173.898707187,-90.8693753668,-119.481229801
1564084169.44,0.0448390365327,0.0159526479319,0.963692380396,-1.30464760663,-0.705209449085,-0.883458830692,734.642774552,261.368183717,15789.1359604,-170.908836468,-92.3824378301,-115.733106821
1564084169.55,0.0448717344419,0.0143573831387,0.963831931419,-1.31082406734,-0.717131252268,-0.863051878921,735.178497097,235.231365345,15791.4223644,-171.717952821,-93.9441940471,-113.059796139
1564084169.66,0.0448767484977,0.0129948870124,0.963908699215,-1.29806227129,-0.698853241545,-0.877510049807,735.260647387,212.90822881,15792.6801279,-170.046157539,-91.5497746424,-114.953816525
1564084169.78,0.045027745523,0.0130869998736,0.964026618356,-1.28963008996,-0.712937383039,-0.901209426506,737.734582648,214.417405929,15794.6121151,-168.941541785,-93.3947971782,-118.058434872
1564084169.89,0.0436987990957,0.0132919717613,0.96430364402,-1.26906402753,-0.714162728705,-0.890477796833,715.961124384,217.775665336,15799.1509036,-166.247387607,-93.5553174604,-116.652591385
1564084170.0,0.0439187629361,0.0138670714601,0.963869373368,-1.24673777745,-0.714502181025,-0.892269711806,719.565011945,227.198098803,15792.0358133,-163.322648846,-93.5997857143,-116.887332247
1564084170.12,0.04379934758,0.0138719658766,0.964503920406,-1.25336170963,-0.736181733915,-0.859531290243,717.608510751,227.278288923,15802.4322319,-164.190383962,-96.4398071429,-112.598599022
1564084170.23,0.043716287822,0.0142181677265,0.964904114303,-1.25321637836,-0.746533026173,-0.869761367326,716.247659676,232.95046003,15808.9890087,-164.171345565,-97.7958264286,-113.93873912
1564084170.35,0.0424696590398,0.0143100228288,0.964995734123,-1.26987947335,-0.758902624319,-0.891945535937,695.822893708,234.455414027,15810.4901079,-166.354211009,-99.4162437857,-116.844865208
1564084170.46,0.0425195681358,0.0141241377334,0.964687566961,-1.28105946495,-0.739500911505,-0.867636478526,696.640604337,231.409872625,15805.4410971,-167.818789908,-96.8746194072,-113.660378687
1564084170.57,0.0427597988222,0.0141521536476,0.96445904464,-1.28959473983,-0.710588988294,-0.864842296323,700.576543903,231.868885362,15801.6969874,-168.936910917,-93.0871574664,-113.294340818
1564084170.69,0.04170647519,0.0144215085953,0.963350054238,-1.29651312844,-0.710522455876,-0.885228295698,683.318889513,236.281996826,15783.5272886,-169.843219825,-93.0784417198,-115.964906736
1564084170.8,0.0417594604835,0.0143953733608,0.964109775377,-1.29205265529,-0.703592347693,-0.898232183685,684.187000562,235.853797143,15795.9745598,-169.258897843,-92.1705975478,-117.668416063
1564084170.91,0.0421489441227,0.0129802500872,0.964109930652,-1.29109166457,-0.717202578573,-0.896958583638,690.568300506,212.668417429,15795.9771038,-169.133008059,-93.953537793,-117.501574457
1564084171.03,0.0439399090854,0.013708592266,0.963621789149,-1.27724967369,-0.727925068807,-0.888942114587,719.911470455,224.601575686,15787.9793934,-167.319707253,-95.3581840137,-116.451417011
1564084171.14,0.0438183791144,0.0139246471019,0.963817227422,-1.27395218723,-0.737575310018,-0.900047903128,717.92032341,228.141418117,15791.1814541,-166.887736527,-96.6223656124,-117.90627531
1564084171.25,0.0439775568279,0.0154862839542,0.963456012492,-1.26411422042,-0.740153656879,-0.900882807472,720.528291069,253.727276306,15785.2633087,-165.598962875,-96.9601290511,-118.015647779
1564084171.37,0.0439987464576,0.0154024993088,0.963619200305,-1.25373333273,-0.741710810275,-0.898580786267,720.875461962,252.354548675,15787.9369778,-164.239066587,-97.164116146,-117.714083001
1564084171.48,0.0437492624369,0.0153515071904,0.965523881837,-1.27874167884,-0.748455759782,-0.916356295426,716.787915766,251.519093808,15819.14328,-167.515159929,-98.0477045314,-120.042674701
1564084171.59,0.0437688674432,0.0157206533464,0.965358212403,-1.30353926668,-0.663686519681,-0.920140513212,717.109124189,257.567184427,15816.428952,-170.763643936,-86.9429340783,-120.538407231
1564084171.71,0.0440062385114,0.0160772989492,0.964525516163,-1.2953227446,-0.680523974584,-0.904462339753,720.99821177,263.410465984,15802.7860568,-169.687279542,-89.1486406704,-118.484566508
1564084171.82,0.0439757318477,0.0162762096793,0.964777066109,-1.28716451594,-0.692624248881,-0.905619159213,720.498390593,266.669419386,15806.9074511,-168.618551588,-90.7337766034,-118.636109857
1564084171.94,0.044412143038,0.0161866746489,0.964979046998,-1.27753203381,-0.68595724384,-0.894446556269,727.648551534,265.202477447,15810.216706,-167.356696429,-89.8603989431,-117.172498871
1564084172.05,0.0444875302967,0.0163990618715,0.964892275111,-1.27802310524,-0.695987473655,-0.906528618199,728.88369638,268.682229702,15808.7950354,-167.421026786,-91.1743590488,-118.755248984
1564084172.16,0.0444577225795,0.0162484134968,0.964911836662,-1.27388491685,-0.70348796293,-0.892211634242,728.395326742,266.214006732,15809.1155319,-166.878924108,-92.1569231439,-116.879724086
1564084172.28,0.044430895634,0.0146724002722,0.965051512371,-1.27321398242,-0.7094750445,-0.90146375326,727.955794068,240.392606059,15811.4039787,-166.791031697,-92.9412308295,-118.091751677
1564084172.39,0.0447729623206,0.0145967618074,0.965128392384,-1.28711395822,-0.709519906462,-0.919714324499,733.560214661,239.153345453,15812.6635808,-168.611928527,-92.9471077465,-120.482576509
1564084172.5,0.0449099239011,0.0140892340642,0.965661451583,-1.27672317309,-0.717957228793,-0.914765792813,735.804193195,230.838010908,15821.3972227,-167.250735674,-94.0523969719,-119.834318858
1564084172.62,0.045057603386,0.0139986700328,0.96562850955,-1.27347833669,-0.69806990286,-0.904205244066,738.223773876,229.354209817,15820.8575005,-166.825662107,-91.4471572747,-118.450886973
1564084172.73,0.0449463742974,0.0138683342795,0.965281478907,-1.27666485417,-0.704598790437,-0.899280902865,736.401396488,227.218788835,15815.1717504,-167.243095896,-92.3024415472,-117.805798275
1564084172.85,0.0448462681176,0.0137022039765,0.965164463829,-1.29174646036,-0.694444254905,-0.904772659907,734.761256839,224.496909952,15813.2545754,-169.218786307,-90.9721973925,-118.525218448
1564084172.96,0.0446585163059,0.0134550304539,0.965620673696,-1.29768631814,-0.708205936284,-0.918112187809,731.685131155,220.447218957,15820.7291178,-169.996907676,-92.7749776533,-120.272696603
1564084173.07,0.0447580943628,0.013305816471,0.965811536014,-1.30990241915,-0.695400609832,-0.924010892693,733.31661804,218.002497061,15823.8562061,-171.597216908,-91.0974798879,-121.045426943
1564084173.19,0.0444326755515,0.0137818754489,0.965543858975,-1.29417935281,-0.698379632818,-0.933899879759,727.984956236,225.802247355,15819.4705854,-169.537495218,-91.4877318991,-122.340884248
1564084173.3,0.0447501501839,0.012403687904,0.96569357464,-1.29758584501,-0.683503501597,-0.916845769646,733.186460612,203.222022619,15821.9235269,-169.983745696,-89.5389587092,-120.106795824
1564084173.41,0.0435466195405,0.0126281628636,0.965120310926,-1.27622420707,-0.698359258308,-0.917527604895,713.467814551,206.899820357,15812.5311742,-167.185371126,-91.4850628383,-120.196116241
1564084173.53,0.0453443013364,0.0128301903273,0.964775272021,-1.2722659085,-0.705622569118,-0.921958050512,742.921033096,210.209838322,15806.8780568,-166.666834014,-92.4365565545,-120.776504617
1564084173.64,0.0439348712028,0.014550100982,0.964367080756,-1.27786374513,-0.724373289306,-0.89693781798,719.828929786,238.38885449,15800.1902511,-167.400150612,-94.892900899,-117.498854155
1564084173.75,0.044057985645,0.0132415752588,0.963828810181,-1.2829017981,-0.706134433657,-0.911060830075,721.846036808,216.949969041,15791.371226,-168.060135551,-92.5036108091,-119.34896874
1564084173.87,0.043924648018,0.0150180036704,0.9642965151,-1.30804673279,-0.718727097162,-0.909267724167,719.661433127,246.054972137,15799.0341034,-171.354121996,-94.1532497282,-119.114071866
1564084173.98,0.0438290582162,0.0135162033034,0.964082683903,-1.316936716,-0.708686448514,-0.913760799079,718.095289814,221.449474923,15795.5306931,-172.518709796,-92.8379247554,-119.702664679
1564084174.1,0.0440604102071,0.0135805985981,0.963768165512,-1.3104338841,-0.716443757861,-0.912461055049,721.885760833,222.504527431,15790.3776238,-171.666838817,-93.8541322798,-119.532398211
1564084174.21,0.0440977285614,0.0151766403008,0.964095450524,-1.31145156439,-0.717318466045,-0.915108079315,722.49718475,248.654074688,15795.7398614,-171.800154935,-93.9687190519,-119.87915839
1564084174.32,0.0458402994552,0.0151238200207,0.964219108596,-1.31389419421,-0.724975932417,-0.909093454589,751.047466275,247.788667219,15797.7658752,-172.120139442,-94.9718471467,-119.091242551
1564084174.44,0.0456508007597,0.0146856567686,0.964183916487,-1.32677958395,-0.721180629252,-0.91818410913,747.942719647,240.609800497,15797.1892877,-173.808125497,-94.474662432,-120.282118296
1564084174.55,0.0458220488087,0.0142180676542,0.964176657651,-1.31776574769,-0.715474780067,-0.931709209668,750.748447682,232.948820447,15797.0703589,-172.627312948,-93.7271961888,-122.053906466
1564084174.66,0.0447066408029,0.0144075890138,0.964341023135,-1.29972963094,-0.703469286793,-0.940828365037,732.473602914,236.053938402,15799.7633231,-170.264581653,-92.1544765699,-123.24851582
1564084174.78,0.0445084376601,0.0140898769874,0.964611022384,-1.3033444541,-0.727015487885,-0.939875299526,729.226242623,230.848544562,15804.1869907,-170.738123488,-95.2390289129,-123.123664238
1564084174.89,0.0449404063941,0.0141945611637,0.964634295146,-1.29667413083,-0.721489511616,-0.972605326825,736.30361836,232.563690106,15804.5682917,-169.864311139,-94.5151260216,-127.411297814
1564084175.0,0.0446455845047,0.0128727612973,0.964679654694,-1.29219755744,-0.708882545187,-0.959314259791,731.473256524,210.907321095,15805.3114625,-169.277880025,-92.8636134195,-125.670168033
1564084175.12,0.0447220416792,0.0128794304801,0.964915790787,-1.29961902307,-0.70898665708,-0.964146192591,732.725930872,211.016588986,15809.1803163,-170.250092022,-92.8772520775,-126.303151229
1564084175.23,0.0446687828238,0.0129098468071,0.964810930458,-1.3078250597,-0.720530739464,-0.928800275622,731.853337785,211.514930087,15807.4622846,-171.32508282,-94.3895268698,-121.672836106
1564084175.35,0.0444499514164,0.0145729636889,0.9643015171,-1.29459980563,-0.710309726586,-0.932103454166,728.268004006,238.763437079,15799.1160562,-169.592574538,-93.0505741828,-122.105552496
1564084175.46,0.0444239015873,0.01418988607,0.96328152164,-1.31475814568,-0.707217685225,-0.951106849208,727.841203606,232.487093371,15782.4044505,-172.233317084,-92.6455167645,-124.594997246
1564084175.58,0.0442783864285,0.015798241213,0.963120361663,-1.29625943035,-0.692984466321,-0.975843492531,725.457083245,258.838384034,15779.7640055,-169.809985376,-90.7809650881,-127.835497522
1564084175.69,0.0444648055982,0.0158053311542,0.962999731747,-1.29411440335,-0.712998996788,-0.96070189137,728.511374921,258.95454563,15777.7876049,-169.528986838,-93.4028685793,-125.851947769
1564084175.8,0.0446569969134,0.0155919855388,0.96306206326,-1.28607700881,-0.714218181079,-0.97150193124,731.660237429,255.459091067,15778.8088445,-168.476088155,-93.5625817213,-127.266752992
1564084175.92,0.0443172737845,0.0156685291724,0.963069333496,-1.28189678885,-0.70997193549,-0.965191432773,726.094213686,256.713181961,15778.92796,-167.928479339,-93.0063235492,-126.440077693
1564084176.03,0.0442556635936,0.0151758950052,0.962563181397,-1.27584451454,-0.70615031446,-0.974015800946,725.084792317,248.641863764,15770.635164,-167.135631405,-92.5056911943,-127.596069924
1564084176.14,0.0444931831717,0.0166368211296,0.962644753882,-1.28566464324,-0.709581084541,-0.974324144516,728.976313085,272.577677388,15771.9716476,-168.422068265,-92.9551220749,-127.636462932
1564084176.26,0.0446337086045,0.0162670843292,0.962547270681,-1.28534245373,-0.716485571507,-0.955517684262,731.278681777,266.519909649,15770.3744828,-168.379861438,-93.8596098674,-125.172816638
1564084176.37,0.0443695564941,0.0163493602713,0.962923402988,-1.26825859003,-0.721936250997,-0.953095686829,726.950813599,267.867918684,15776.5370346,-166.141875294,-94.5736488806,-124.855534975
1564084176.48,0.0444247883447,0.0159351273691,0.963017781439,-1.26280677683,-0.729131938875,-0.944809018909,727.855732239,261.081126816,15778.0833311,-165.427687765,-95.5162839926,-123.769981477
1564084176.6,0.0447918798227,0.0154646615072,0.962687682983,-1.2846177022,-0.713470653384,-0.931244147553,733.870159015,253.373014134,15772.674998,-168.284918988,-93.4646555933,-121.992983329
1564084176.71,0.0448781215279,0.015114484419,0.96256149281,-1.27523990145,-0.722276259801,-0.917509045774,735.283143114,247.635712721,15770.6074982,-167.05642709,-94.618190034,-120.193684996
1564084176.83,0.0448092546876,0.0150434656646,0.962569991966,-1.27901362123,-0.720277641455,-0.889880278601,734.154828802,246.472141449,15770.7467484,-167.550784381,-94.3563710306,-116.574316497
1564084176.94,0.0465050870314,0.0150039628481,0.962675297457,-1.27401302246,-0.733746060515,-0.890205227841,761.939345922,245.824927304,15772.4720735,-166.895705943,-96.1207339275,-116.616884847
1564084177.05,0.0449795783282,0.0148951681258,0.962989798961,-1.24508500266,-0.733653897212,-0.901948063835,736.94541133,244.042434573,15777.6248662,-163.106135348,-96.1086605348,-118.155196362
1564084177.17,0.0436066204954,0.0150413935007,0.963053123753,-1.23126352529,-0.728227438789,-0.939997532261,714.450870197,246.438191116,15778.6623796,-161.295521813,-95.3977944813,-123.139676726
1564084177.28,0.0425418568834,0.0150265119632,0.963183358252,-1.23027457734,-0.728687137658,-0.949051214149,697.005783177,246.194372005,15780.7961416,-161.165969632,-95.4580150332,-124.325709054
1564084177.39,0.0416812258825,0.0148178060794,0.962861116177,-1.21335398984,-0.733681019312,-0.947275863727,682.90520486,242.774934804,15775.5165274,-158.949372669,-96.1122135298,-124.093138148
1564084177.51,0.0420052907943,0.0147764551589,0.963279106122,-1.23171324734,-0.718328184556,-0.967815452927,688.214684374,242.097441324,15782.3648747,-161.354435402,-94.1009921769,-126.783824333
1564084177.62,0.0423213632774,0.0147880674555,0.963167015822,-1.21922894551,-0.723594602742,-0.988591159542,693.393215936,242.287697191,15780.5283872,-159.718991862,-94.7908929592,-129.5054419
1564084177.74,0.0425081722621,0.014725276335,0.963212618928,-1.20570299752,-0.702380180636,-0.972938150458,696.453894343,241.258927472,15781.2755485,-157.947092676,-92.0118036633,-127.45489771
1564084177.85,0.0426274722234,0.014986147139,0.96332690391,-1.21948384281,-0.70008109387,-0.971064182741,698.408504908,245.533034725,15783.1479937,-159.752383408,-91.7106232969,-127.209407939
1564084177.96,0.0416362093761,0.0149279621126,0.962990307269,-1.23646675624,-0.715569167689,-0.959453947673,682.167654418,244.579731252,15777.6331943,-161.977145067,-93.7395609672,-125.688467145
1564084178.08,0.0422089165635,0.0152662205888,0.962662956229,-1.24793458443,-0.730271792905,-0.977249010921,691.550888976,250.121758127,15772.2698749,-163.479430561,-95.6656048705,-128.019620431
1564084178.19,0.0426022827196,0.0138372547799,0.961757988732,-1.24451517179,-0.709153010561,-0.958913422806,697.995800078,226.709582314,15757.4428874,-163.031487504,-92.8990443835,-125.617658388
1564084178.3,0.0427609997602,0.0143334121144,0.961675939858,-1.24678121186,-0.700833129352,-0.959205286632,700.59622007,234.838624083,15756.0985986,-163.328338754,-91.8091399451,-125.655892549
1564084178.42,0.0431235716591,0.014462570903,0.962090377123,-1.26866797617,-0.710902488173,-0.928933612931,706.536598063,236.954761675,15762.8887388,-166.195504879,-93.1282259506,-121.690303294
1564084178.53,0.0431325035557,0.0141393606877,0.962512198785,-1.26088514802,-0.710041246989,-0.932223457744,706.682938257,231.659285507,15769.7998649,-165.175954391,-93.0154033555,-122.121272965
1564084178.64,0.0435311672627,0.0139705418064,0.961768791407,-1.2569340378,-0.73903712229,-0.931367524184,713.214644431,228.893356957,15757.6198784,-164.658358952,-96.81386302,-122.009145668
1564084178.76,0.0424495349114,0.0141115735633,0.961710076329,-1.26101162639,-0.753683028382,-0.910749855735,695.493179988,231.204021261,15756.6578906,-165.192523057,-98.732476718,-119.308231101
1564084178.87,0.0425746986077,0.0127248302695,0.961901373383,-1.261628021,-0.761520832414,-0.909751206039,697.543861989,208.483619135,15759.7921015,-165.273270751,-99.7592290462,-119.177407991
1564084178.99,0.0415154709345,0.013039261305,0.961438775107,-1.24462552424,-0.747200810241,-0.902745551084,680.18947579,213.635257221,15752.2128914,-163.045943676,-97.8833061416,-118.259667192
1564084179.1,0.040586580091,0.012980452362,0.961950171034,-1.24459045273,-0.725915843721,-0.895677102846,664.970528211,212.671731499,15760.5916022,-163.041349308,-95.0949755274,-117.333700473
1564084179.21,0.0396529220819,0.0128542821258,0.961800075806,-1.25066575861,-0.735003648662,-0.891605575767,649.67347539,210.604558349,15758.132442,-163.837214377,-96.2854779747,-116.800330426
1564084179.33,0.0403507158112,0.0142544007882,0.961616161975,-1.2271259003,-0.750052902116,-0.920765628878,661.106127851,233.544102514,15755.1191978,-160.75349294,-98.2569301772,-120.620297383
1564084179.44,0.0407590036051,0.0139764216469,0.962085405153,-1.22884079119,-0.713978909614,-0.92334555454,667.795515066,228.989692263,15762.807278,-160.978143646,-93.5312371595,-120.958267645
1564084179.55,0.0409311501196,0.0141168654197,0.962239169325,-1.22809411665,-0.708229873615,-0.946278174658,670.615963559,231.290723037,15765.3265502,-160.880329281,-92.7781134435,-123.96244088
1564084179.67,0.0464327616701,0.0124366241902,0.962987908642,-1.75261294926,0.50534120535,-1.22951295261,760.754367204,203.761650733,15777.5938952,-229.592296353,66.1996979008,-161.066196792
1564084179.78,0.0483080401906,0.00506503208372,0.958608063091,-9.08345852456,1.68457807718,1.75069025105,791.478930483,82.9854856597,15705.8345057,-1189.93306672,220.679728111,229.340422887
1564084179.89,0.0450641502341,-0.0104072914372,0.939627139594,-2.52473099272,-1.0495285855,-3.03888259085,738.331037435,-170.513062906,15394.8510551,-330.739760046,-137.4882447,-398.093619402
1564084180.01,0.0513975789607,-0.0128577732309,0.936069699072,-3.94630369497,-1.06213297886,-2.80064318673,842.097933691,-210.661756616,15336.5659496,-516.965784041,-139.13942023,-366.884257462
1564084180.12,0.0542168054396,-0.0184811755953,0.941583822915,-4.33106263845,-0.836835711506,-2.61599871538,888.288140322,-302.795580954,15426.9093546,-567.369205637,-109.625478207,-342.695831715
1564084180.23,0.0565099686456,-0.0235178236608,0.942444971873,-4.12696400819,-0.872236109821,-2.45058204995,925.85932629,-385.316022859,15441.0184192,-540.632285073,-114.262930387,-321.026248544
1564084180.35,0.0590132686561,-0.0266347912947,0.943879185624,-3.82495463028,-0.919363643877,-2.29865361595,966.873393661,-436.384420573,15464.5165773,-501.069056566,-120.436637348,-301.123623689
1564084180.46,0.061241824603,-0.0303189684153,0.945560602999,-3.71039809855,-0.886205905444,-2.2100096284,1003.38605429,-496.745978516,15492.0649195,-486.06215091,-116.092973613,-289.51126132
1564084180.58,0.0627104155802,-0.0337323840737,0.946976222386,-3.15080867037,-0.796821956121,-2.10656591747,1027.44744887,-552.671380664,15515.2584276,-412.755935819,-104.383676252,-275.960135188
1564084180.69,0.0645936708971,-0.0365603175414,0.947786412648,-2.76473543692,-0.825536707073,-1.97148184481,1058.30270398,-599.004242598,15528.5325848,-362.180342237,-108.145308627,-258.26412167
1564084180.8,0.0674360616199,-0.0402040904747,0.948613240133,-2.99665883979,-0.781150975297,-1.87051686643,1104.87243358,-658.703818338,15542.0793263,-392.562308013,-102.330777764,-245.037709503
1564084180.92,0.0675039788954,-0.0421162986147,0.950456017682,-2.59546623826,-0.741967175478,-1.80865601948,1105.98519022,-690.033436504,15572.2713937,-340.006077212,-97.1976999876,-236.933938552
1564084181.03,0.0683951825684,-0.0445452937533,0.951479751851,-2.59469824039,-0.74563305335,-1.71634003586,1120.5866712,-729.830092854,15589.0442543,-339.905469491,-97.6779299888,-224.840544697
1564084181.14,0.0694658205616,-0.0464384206279,0.952791737604,-2.46576276749,-0.789390358702,-1.62027855135,1138.12800408,-760.847083568,15610.5398289,-323.014922542,-103.41013699,-212.256490227
1564084181.26,0.0690622072554,-0.0504859848152,0.954045766968,-2.46956817013,-0.55014597932,-1.60252550538,1131.51520367,-827.162375211,15631.085846,-323.513430287,-72.0691232909,-209.930841205
1564084181.37,0.0632546193424,-0.0434110191461,0.932249588709,3.44380086062,0.208685412505,-5.18044089377,1036.36368331,-711.24613769,15273.9772614,451.137912741,27.3377890382,-678.637757084
1564084181.48,0.0574662667831,-0.0297437453565,0.933677950151,4.30018413334,1.69087030637,-4.73567924714,941.527314975,-487.321523921,15297.3795353,563.324121467,221.504010134,-620.373981376
1564084181.6,0.0575301869798,-0.0223260114459,0.937478123886,3.70680694138,1.46529472611,-4.36287468121,942.574583477,-365.789371529,15359.6415817,485.591709321,191.953609121,-571.536583238
1564084181.71,0.0553660354693,-0.0164068868638,0.938847498997,3.04681327014,1.46762021533,-4.0082666024,907.11712513,-268.810434376,15382.0774236,399.132538388,192.258248209,-525.082924914
1564084181.82,0.0541995491099,-0.0107622919274,0.941618022535,2.78564339351,1.11475132357,-3.70438650705,888.005412617,-176.329390939,15427.4696812,364.91928455,146.032423388,-485.274632423
1564084181.94,0.0529543988864,-0.00590188304716,0.944404462469,2.36127752744,0.959764740833,-3.41486388688,867.604871355,-96.6964518447,15473.1227131,309.327356095,125.729181049,-447.347169181
